load.started,load.stopped,Sona ID,Participant ID,Session,date,expName,psychopyVersion,OS,frameRate,cvmtInstr.started,cvmtInstr.stopped,cvmtTaskInstr.started,cvmtTaskInstr.stopped,presentDesign.started,presentDesign.stopped,cvmt_key_resp.keys,cvmt_key_resp.corr,cvmtNoResp.started,cvmtNoResp.stopped,cvmt_key_resp2.keys,cvmt_key_resp2.corr,cvmt_key_resp2.rt,cvmt_key_resp2.duration,cvmtSampleFB.started,cvmtSampleFB.stopped,key_resp_15.keys,cvmtSampleFBFinal.started,cvmtSampleFBFinal.stopped,cvmt_final_samp_fb_key_resp.keys,cvmtTrials.thisRepN,cvmtTrials.thisTrialN,cvmtTrials.thisN,cvmtTrials.thisIndex,cvmtTrials.ran,cvmt_design,old_or_new,cvmt_key_resp.rt,cvmt_key_resp.duration,key_resp_15.rt,key_resp_15.duration,cvmt_final_samp_fb_key_resp.rt,cvmt_final_samp_fb_key_resp.duration,cvmtDelay.started,cvmtDelay.stopped,cvmt timer,engAJT_instr.started,engAJT_instr.stopped,start_ajt.keys,start_ajt.rt,start_ajt.duration,engAJT.started,engAJT.stopped,acceptability.response,acceptability.rt,engAJT_trials.thisRepN,engAJT_trials.thisTrialN,engAJT_trials.thisN,engAJT_trials.thisIndex,engAJT_trials.ran,ajt_list,list_position,condition,item,testSent
0.0004,0.1764,100565,006,1,2024-03-06_22h37.47.489,Memory and Syntax,2023.2.3,Win32,163.9344262,,,,,,,,,,,,,,,,,,,,,,,,,,,,,,,,,,,,,,,,,,,,,,,,,,,,,,,
,,100565,006,1,2024-03-06_22h37.47.489,Memory and Syntax,2023.2.3,Win32,163.9344262,0.1864,17.3789,17.3822,19.3637,19.3877,21.3656,,0,21.3661,31.6103,n,1,10.227,,31.6105,31.616,,31.6162,31.6168,,0,0,0,0,1,cvmt/sample/s1.jpg,n,,,,,,,,,,,,,,,,,,,,,,,,,,,,
,,100565,006,1,2024-03-06_22h37.47.489,Memory and Syntax,2023.2.3,Win32,163.9344262,,,,,31.6176,33.6113,n,1,33.6116,33.6123,,0,,,33.6125,33.6132,,33.6135,33.614,,0,1,1,1,1,cvmt/sample/s2.jpg,n,1.0512,,,,,,,,,,,,,,,,,,,,,,,,,,,
,,100565,006,1,2024-03-06_22h37.47.489,Memory and Syntax,2023.2.3,Win32,163.9344262,,,,,33.6149,35.6133,o,1,35.6135,42.8206,o,1,7.2052,,42.8208,42.8268,,42.8269,42.8274,,0,2,2,2,1,cvmt/sample/s3.jpg,o,0.4837,,,,,,,,,,,,,,,,,,,,,,,,,,,
,,100565,006,1,2024-03-06_22h37.47.489,Memory and Syntax,2023.2.3,Win32,163.9344262,,,,,42.828,44.8269,o,0,44.8272,44.8278,,0,,,44.8281,63.2411,c,63.2414,63.2419,,0,3,3,3,1,cvmt/sample/s4.jpg,n,1.6517,,18.4018,,,,,,,,,,,,,,,,,,,,,,,,,
,,100565,006,1,2024-03-06_22h37.47.489,Memory and Syntax,2023.2.3,Win32,163.9344262,,,,,63.2436,65.243,,0,65.2433,67.9791,n,1,2.7338,,67.9793,67.9847,,67.9849,67.9852,,0,4,4,4,1,cvmt/sample/s5.jpg,n,,,,,,,,,,,,,,,,,,,,,,,,,,,,
,,100565,006,1,2024-03-06_22h37.47.489,Memory and Syntax,2023.2.3,Win32,163.9344262,,,,,67.9858,69.9841,,0,69.9845,70.4148,n,1,0.4173,,70.4151,70.4157,,70.4159,70.4162,,0,5,5,5,1,cvmt/sample/s6.jpg,n,,,,,,,,,,,,,,,,,,,,,,,,,,,,
,,100565,006,1,2024-03-06_22h37.47.489,Memory and Syntax,2023.2.3,Win32,163.9344262,,,,,70.4168,72.417,,0,72.4174,72.7338,o,1,0.3003,,72.7341,72.7391,,72.7393,72.7397,,0,6,6,6,1,cvmt/sample/s7.jpg,o,,,,,,,,,,,,,,,,,,,,,,,,,,,,
,,100565,006,1,2024-03-06_22h37.47.489,Memory and Syntax,2023.2.3,Win32,163.9344262,,,,,72.7403,74.7418,,0,74.7421,75.0863,o,0,0.3337,,75.0866,78.1295,c,78.1297,78.1303,,0,7,7,7,1,cvmt/sample/s8.jpg,n,,,3.0238,,,,,,,,,,,,,,,,,,,,,,,,,
,,100565,006,1,2024-03-06_22h37.47.489,Memory and Syntax,2023.2.3,Win32,163.9344262,,,,,78.131,80.1296,n,1,80.1299,80.1305,,0,,,80.1309,80.1321,,80.1323,80.1329,,0,8,8,8,1,cvmt/sample/s9.jpg,n,1.3013,,,,,,,,,,,,,,,,,,,,,,,,,,,
,,100565,006,1,2024-03-06_22h37.47.489,Memory and Syntax,2023.2.3,Win32,163.9344262,,,,,80.1337,82.1296,n,1,82.1299,82.1305,,0,,,82.1307,82.1314,,82.1316,82.1322,,0,9,9,9,1,cvmt/sample/s10.jpg,n,0.6175,,,,,,,,,,,,,,,,,,,,,,,,,,,
,,100565,006,1,2024-03-06_22h37.47.489,Memory and Syntax,2023.2.3,Win32,163.9344262,,,,,82.133,84.1286,o,1,84.129,84.1296,,0,,,84.13,84.1306,,84.1309,96.6464,c,0,10,10,10,1,cvmt/sample/s11.jpg,o,1.585,,,,12.4959,,,,,,,,,,,,,,,,,,,,,,,
,,100565,006,1,2024-03-06_22h37.47.489,Memory and Syntax,2023.2.3,Win32,163.9344262,,,96.6478,107.4852,107.4967,109.4871,,0,109.4871,110.8554,n,1,1.3515,,110.8554,110.8556,,110.8557,110.8563,,0,0,0,0,1,cvmt/test_items/t1.jpeg,n,,,,,,,,,,,,,,,,,,,,,,,,,,,,
,,100565,006,1,2024-03-06_22h37.47.489,Memory and Syntax,2023.2.3,Win32,163.9344262,,,,,110.8564,112.8571,,0,112.8571,113.1243,n,1,0.2613,,113.1243,113.1245,,113.1245,113.1245,,0,1,1,1,1,cvmt/test_items/t2.jpeg,n,,,,,,,,,,,,,,,,,,,,,,,,,,,,
,,100565,006,1,2024-03-06_22h37.47.489,Memory and Syntax,2023.2.3,Win32,163.9344262,,,,,113.1246,115.1261,,0,115.1261,115.4267,o,1,0.2971,,115.4267,115.4269,,115.4269,115.427,,0,2,2,2,1,cvmt/test_items/t3.jpeg,o,,,,,,,,,,,,,,,,,,,,,,,,,,,,
,,100565,006,1,2024-03-06_22h37.47.489,Memory and Syntax,2023.2.3,Win32,163.9344262,,,,,115.427,117.4283,n,0,117.4284,117.4285,,0,,,117.4285,117.4286,,117.4286,117.4286,,0,3,3,3,1,cvmt/test_items/t4.jpeg,o,1.2035,,,,,,,,,,,,,,,,,,,,,,,,,,,
,,100565,006,1,2024-03-06_22h37.47.489,Memory and Syntax,2023.2.3,Win32,163.9344262,,,,,117.4287,119.4304,n,0,119.4304,119.4305,,0,,,119.4305,119.4307,,119.4307,119.4307,,0,4,4,4,1,cvmt/test_items/t5.jpeg,o,0.3295,,,,,,,,,,,,,,,,,,,,,,,,,,,
,,100565,006,1,2024-03-06_22h37.47.489,Memory and Syntax,2023.2.3,Win32,163.9344262,,,,,119.4308,121.4325,,0,121.4325,122.5172,n,0,1.0678,,122.5173,122.5217,,122.5217,122.5217,,0,5,5,5,1,cvmt/test_items/t6.jpeg,o,,,,,,,,,,,,,,,,,,,,,,,,,,,,
,,100565,006,1,2024-03-06_22h37.47.489,Memory and Syntax,2023.2.3,Win32,163.9344262,,,,,122.5219,124.5188,n,0,124.5188,124.5189,,0,,,124.519,124.519,,124.519,124.5191,,0,6,6,6,1,cvmt/test_items/t7.jpeg,o,0.9671,,,,,,,,,,,,,,,,,,,,,,,,,,,
,,100565,006,1,2024-03-06_22h37.47.489,Memory and Syntax,2023.2.3,Win32,163.9344262,,,,,124.5192,126.5208,o,1,126.5209,126.521,,0,,,126.521,126.5212,,126.5212,126.5213,,0,7,7,7,1,cvmt/test_items/t8.jpeg,o,0.9328,,,,,,,,,,,,,,,,,,,,,,,,,,,
,,100565,006,1,2024-03-06_22h37.47.489,Memory and Syntax,2023.2.3,Win32,163.9344262,,,,,126.5214,128.5233,n,0,128.5234,128.5234,,0,,,128.5234,128.5236,,128.5236,128.5236,,0,8,8,8,1,cvmt/test_items/t9.jpeg,o,0.5924,,,,,,,,,,,,,,,,,,,,,,,,,,,
,,100565,006,1,2024-03-06_22h37.47.489,Memory and Syntax,2023.2.3,Win32,163.9344262,,,,,128.5237,130.5248,n,0,130.5248,130.5249,,0,,,130.5249,130.525,,130.525,130.525,,0,9,9,9,1,cvmt/test_items/t10.jpeg,o,1.0839,,,,,,,,,,,,,,,,,,,,,,,,,,,
,,100565,006,1,2024-03-06_22h37.47.489,Memory and Syntax,2023.2.3,Win32,163.9344262,,,,,130.5252,132.5167,n,1,132.5167,132.5168,,0,,,132.5168,132.5169,,132.5169,132.517,,0,10,10,10,1,cvmt/test_items/t11.jpeg,n,0.7978,,,,,,,,,,,,,,,,,,,,,,,,,,,
,,100565,006,1,2024-03-06_22h37.47.489,Memory and Syntax,2023.2.3,Win32,163.9344262,,,,,132.5171,134.5167,n,0,134.5167,134.5168,,0,,,134.5168,134.517,,134.517,134.517,,0,11,11,11,1,cvmt/test_items/t12.jpeg,o,0.7542,,,,,,,,,,,,,,,,,,,,,,,,,,,
,,100565,006,1,2024-03-06_22h37.47.489,Memory and Syntax,2023.2.3,Win32,163.9344262,,,,,134.5171,136.5142,o,1,136.5142,136.5143,,0,,,136.5143,136.5144,,136.5144,136.5144,,0,12,12,12,1,cvmt/test_items/t13.jpeg,o,1.4775,,,,,,,,,,,,,,,,,,,,,,,,,,,
,,100565,006,1,2024-03-06_22h37.47.489,Memory and Syntax,2023.2.3,Win32,163.9344262,,,,,136.5146,138.5163,n,0,138.5163,138.5163,,0,,,138.5164,138.5166,,138.5166,138.5167,,0,13,13,13,1,cvmt/test_items/t14.jpeg,o,1.2174,,,,,,,,,,,,,,,,,,,,,,,,,,,
,,100565,006,1,2024-03-06_22h37.47.489,Memory and Syntax,2023.2.3,Win32,163.9344262,,,,,138.5167,140.5182,o,1,140.5182,140.5182,,0,,,140.5182,140.5184,,140.5184,140.5184,,0,14,14,14,1,cvmt/test_items/t15.jpeg,o,0.7,,,,,,,,,,,,,,,,,,,,,,,,,,,
,,100565,006,1,2024-03-06_22h37.47.489,Memory and Syntax,2023.2.3,Win32,163.9344262,,,,,140.5186,142.5203,o,1,142.5203,142.5203,,0,,,142.5204,142.5206,,142.5206,142.5206,,0,15,15,15,1,cvmt/test_items/t16.jpeg,o,0.6065,,,,,,,,,,,,,,,,,,,,,,,,,,,
,,100565,006,1,2024-03-06_22h37.47.489,Memory and Syntax,2023.2.3,Win32,163.9344262,,,,,142.5207,144.5168,o,1,144.5168,144.5168,,0,,,144.5169,144.5171,,144.5171,144.5171,,0,16,16,16,1,cvmt/test_items/t17.jpeg,o,0.8002,,,,,,,,,,,,,,,,,,,,,,,,,,,
,,100565,006,1,2024-03-06_22h37.47.489,Memory and Syntax,2023.2.3,Win32,163.9344262,,,,,144.5171,146.5174,n,0,146.5175,146.5175,,0,,,146.5175,146.5176,,146.5177,146.5177,,0,17,17,17,1,cvmt/test_items/t18.jpeg,o,0.8837,,,,,,,,,,,,,,,,,,,,,,,,,,,
,,100565,006,1,2024-03-06_22h37.47.489,Memory and Syntax,2023.2.3,Win32,163.9344262,,,,,146.5179,148.5097,n,1,148.5097,148.5097,,0,,,148.5097,148.5099,,148.5099,148.5099,,0,18,18,18,1,cvmt/test_items/t19.jpeg,n,0.8169,,,,,,,,,,,,,,,,,,,,,,,,,,,
,,100565,006,1,2024-03-06_22h37.47.489,Memory and Syntax,2023.2.3,Win32,163.9344262,,,,,148.51,150.5116,o,1,150.5117,150.5117,,0,,,150.5118,150.5119,,150.5119,150.5119,,0,19,19,19,1,cvmt/test_items/t20.jpeg,o,0.7669,,,,,,,,,,,,,,,,,,,,,,,,,,,
,,100565,006,1,2024-03-06_22h37.47.489,Memory and Syntax,2023.2.3,Win32,163.9344262,,,,,150.512,152.5138,,0,152.5139,154.1321,o,1,1.6148,,154.1321,154.1369,,154.1369,154.1369,,0,20,20,20,1,cvmt/test_items/t21.jpeg,o,,,,,,,,,,,,,,,,,,,,,,,,,,,,
,,100565,006,1,2024-03-06_22h37.47.489,Memory and Syntax,2023.2.3,Win32,163.9344262,,,,,154.1371,156.1339,n,0,156.1339,156.134,,0,,,156.134,156.1343,,156.1343,156.1343,,0,21,21,21,1,cvmt/test_items/t22.jpeg,o,0.7454,,,,,,,,,,,,,,,,,,,,,,,,,,,
,,100565,006,1,2024-03-06_22h37.47.489,Memory and Syntax,2023.2.3,Win32,163.9344262,,,,,156.1343,158.1358,n,1,158.1358,158.1359,,0,,,158.1359,158.136,,158.1361,158.1361,,0,22,22,22,1,cvmt/test_items/t23.jpeg,n,0.0161,,,,,,,,,,,,,,,,,,,,,,,,,,,
,,100565,006,1,2024-03-06_22h37.47.489,Memory and Syntax,2023.2.3,Win32,163.9344262,,,,,158.1361,160.1407,n,1,160.1407,160.1408,,0,,,160.1408,160.1409,,160.1409,160.141,,0,23,23,23,1,cvmt/test_items/t24.jpeg,n,0.7839,,,,,,,,,,,,,,,,,,,,,,,,,,,
,,100565,006,1,2024-03-06_22h37.47.489,Memory and Syntax,2023.2.3,Win32,163.9344262,,,,,160.1411,162.14,o,1,162.14,162.1401,,0,,,162.1401,162.1404,,162.1404,162.1404,,0,24,24,24,1,cvmt/test_items/t25.jpeg,o,0.6157,,,,,,,,,,,,,,,,,,,,,,,,,,,
,,100565,006,1,2024-03-06_22h37.47.489,Memory and Syntax,2023.2.3,Win32,163.9344262,,,,,162.1404,164.1419,n,1,164.1419,164.142,,0,,,164.142,164.1421,,164.1421,164.1422,,0,25,25,25,1,cvmt/test_items/t26.jpeg,n,0.6005,,,,,,,,,,,,,,,,,,,,,,,,,,,
,,100565,006,1,2024-03-06_22h37.47.489,Memory and Syntax,2023.2.3,Win32,163.9344262,,,,,164.1423,166.144,n,0,166.144,166.1441,,0,,,166.1441,166.1442,,166.1443,166.1443,,0,26,26,26,1,cvmt/test_items/t27.jpeg,o,0.7421,,,,,,,,,,,,,,,,,,,,,,,,,,,
,,100565,006,1,2024-03-06_22h37.47.489,Memory and Syntax,2023.2.3,Win32,163.9344262,,,,,166.1445,168.146,n,1,168.146,168.1461,,0,,,168.1461,168.1463,,168.1463,168.1463,,0,27,27,27,1,cvmt/test_items/t28.jpeg,n,0.5817,,,,,,,,,,,,,,,,,,,,,,,,,,,
,,100565,006,1,2024-03-06_22h37.47.489,Memory and Syntax,2023.2.3,Win32,163.9344262,,,,,168.1464,170.148,n,1,170.148,170.148,,0,,,170.148,170.1482,,170.1482,170.1482,,0,28,28,28,1,cvmt/test_items/t29.jpeg,n,0.6805,,,,,,,,,,,,,,,,,,,,,,,,,,,
,,100565,006,1,2024-03-06_22h37.47.489,Memory and Syntax,2023.2.3,Win32,163.9344262,,,,,170.1483,172.1499,n,0,172.1499,172.1501,,0,,,172.1501,172.1503,,172.1503,172.1503,,0,29,29,29,1,cvmt/test_items/t30.jpeg,o,0.8316,,,,,,,,,,,,,,,,,,,,,,,,,,,
,,100565,006,1,2024-03-06_22h37.47.489,Memory and Syntax,2023.2.3,Win32,163.9344262,,,,,172.1504,174.1468,o,1,174.1468,174.1469,,0,,,174.1469,174.1471,,174.1471,174.1471,,0,30,30,30,1,cvmt/test_items/t31.jpeg,o,0.5558,,,,,,,,,,,,,,,,,,,,,,,,,,,
,,100565,006,1,2024-03-06_22h37.47.489,Memory and Syntax,2023.2.3,Win32,163.9344262,,,,,174.1472,176.1468,o,0,176.1468,176.1468,,0,,,176.1468,176.147,,176.147,176.1471,,0,31,31,31,1,cvmt/test_items/t32.jpeg,n,0.7672,,,,,,,,,,,,,,,,,,,,,,,,,,,
,,100565,006,1,2024-03-06_22h37.47.489,Memory and Syntax,2023.2.3,Win32,163.9344262,,,,,176.1471,178.1393,n,1,178.1394,178.1394,,0,,,178.1394,178.1397,,178.1397,178.1397,,0,32,32,32,1,cvmt/test_items/t33.jpeg,n,1.0006,,,,,,,,,,,,,,,,,,,,,,,,,,,
,,100565,006,1,2024-03-06_22h37.47.489,Memory and Syntax,2023.2.3,Win32,163.9344262,,,,,178.1398,180.1413,o,1,180.1413,180.1414,,0,,,180.1414,180.1416,,180.1416,180.1416,,0,33,33,33,1,cvmt/test_items/t34.jpeg,o,0.6339,,,,,,,,,,,,,,,,,,,,,,,,,,,
,,100565,006,1,2024-03-06_22h37.47.489,Memory and Syntax,2023.2.3,Win32,163.9344262,,,,,180.1416,182.1433,o,0,182.1433,182.1434,,0,,,182.1434,182.1436,,182.1436,182.1436,,0,34,34,34,1,cvmt/test_items/t35.jpeg,n,0.6001,,,,,,,,,,,,,,,,,,,,,,,,,,,
,,100565,006,1,2024-03-06_22h37.47.489,Memory and Syntax,2023.2.3,Win32,163.9344262,,,,,182.1437,184.1454,o,1,184.1454,184.1455,,0,,,184.1455,184.1456,,184.1456,184.1456,,0,35,35,35,1,cvmt/test_items/t36.jpeg,o,0.599,,,,,,,,,,,,,,,,,,,,,,,,,,,
,,100565,006,1,2024-03-06_22h37.47.489,Memory and Syntax,2023.2.3,Win32,163.9344262,,,,,184.1457,186.1472,o,0,186.1473,186.1474,,0,,,186.1474,186.1476,,186.1476,186.1476,,0,36,36,36,1,cvmt/test_items/t37.jpeg,n,1.0842,,,,,,,,,,,,,,,,,,,,,,,,,,,
,,100565,006,1,2024-03-06_22h37.47.489,Memory and Syntax,2023.2.3,Win32,163.9344262,,,,,186.1477,188.1495,o,1,188.1495,188.1496,,0,,,188.1496,188.1498,,188.1498,188.1498,,0,37,37,37,1,cvmt/test_items/t38.jpeg,o,0.5898,,,,,,,,,,,,,,,,,,,,,,,,,,,
,,100565,006,1,2024-03-06_22h37.47.489,Memory and Syntax,2023.2.3,Win32,163.9344262,,,,,188.1499,190.1514,n,1,190.1514,190.1515,,0,,,190.1515,190.1517,,190.1517,190.1518,,0,38,38,38,1,cvmt/test_items/t39.jpeg,n,0.6506,,,,,,,,,,,,,,,,,,,,,,,,,,,
,,100565,006,1,2024-03-06_22h37.47.489,Memory and Syntax,2023.2.3,Win32,163.9344262,,,,,190.1518,192.1534,o,1,192.1534,192.1534,,0,,,192.1534,192.1536,,192.1536,192.1537,,0,39,39,39,1,cvmt/test_items/t40.jpeg,o,1.0092,,,,,,,,,,,,,,,,,,,,,,,,,,,
,,100565,006,1,2024-03-06_22h37.47.489,Memory and Syntax,2023.2.3,Win32,163.9344262,,,,,192.1538,194.1555,o,0,194.1555,194.1556,,0,,,194.1556,194.1558,,194.1558,194.1558,,0,40,40,40,1,cvmt/test_items/t41.jpeg,n,0.701,,,,,,,,,,,,,,,,,,,,,,,,,,,
,,100565,006,1,2024-03-06_22h37.47.489,Memory and Syntax,2023.2.3,Win32,163.9344262,,,,,194.1559,196.1526,o,1,196.1527,196.1527,,0,,,196.1527,196.1529,,196.1529,196.1529,,0,41,41,41,1,cvmt/test_items/t42.jpeg,o,0.6669,,,,,,,,,,,,,,,,,,,,,,,,,,,
,,100565,006,1,2024-03-06_22h37.47.489,Memory and Syntax,2023.2.3,Win32,163.9344262,,,,,196.1532,198.1526,o,1,198.1527,198.1527,,0,,,198.1527,198.1529,,198.1529,198.1529,,0,42,42,42,1,cvmt/test_items/t43.jpeg,o,0.6538,,,,,,,,,,,,,,,,,,,,,,,,,,,
,,100565,006,1,2024-03-06_22h37.47.489,Memory and Syntax,2023.2.3,Win32,163.9344262,,,,,198.1531,200.1465,n,1,200.1465,200.1466,,0,,,200.1466,200.1467,,200.1468,200.1468,,0,43,43,43,1,cvmt/test_items/t44.jpeg,n,0.7504,,,,,,,,,,,,,,,,,,,,,,,,,,,
,,100565,006,1,2024-03-06_22h37.47.489,Memory and Syntax,2023.2.3,Win32,163.9344262,,,,,200.1469,202.1469,n,0,202.1469,202.147,,0,,,202.147,202.1472,,202.1472,202.1472,,0,44,44,44,1,cvmt/test_items/t45.jpeg,o,0.8006,,,,,,,,,,,,,,,,,,,,,,,,,,,
,,100565,006,1,2024-03-06_22h37.47.489,Memory and Syntax,2023.2.3,Win32,163.9344262,,,,,202.1473,204.1486,o,1,204.1487,204.1488,,0,,,204.1488,204.149,,204.149,204.149,,0,45,45,45,1,cvmt/test_items/t46.jpeg,o,0.6327,,,,,,,,,,,,,,,,,,,,,,,,,,,
,,100565,006,1,2024-03-06_22h37.47.489,Memory and Syntax,2023.2.3,Win32,163.9344262,,,,,204.149,206.1508,n,0,206.1508,206.1509,,0,,,206.1509,206.1511,,206.1511,206.1511,,0,46,46,46,1,cvmt/test_items/t47.jpeg,o,1.2487,,,,,,,,,,,,,,,,,,,,,,,,,,,
,,100565,006,1,2024-03-06_22h37.47.489,Memory and Syntax,2023.2.3,Win32,163.9344262,,,,,206.1512,208.1471,n,1,208.1472,208.1473,,0,,,208.1473,208.1474,,208.1474,208.1474,,0,47,47,47,1,cvmt/test_items/t48.jpeg,n,1.5635,,,,,,,,,,,,,,,,,,,,,,,,,,,
,,100565,006,1,2024-03-06_22h37.47.489,Memory and Syntax,2023.2.3,Win32,163.9344262,,,,,208.1475,210.147,o,1,210.147,210.1471,,0,,,210.1471,210.1473,,210.1473,210.1473,,0,48,48,48,1,cvmt/test_items/t49.jpeg,o,0.617,,,,,,,,,,,,,,,,,,,,,,,,,,,
,,100565,006,1,2024-03-06_22h37.47.489,Memory and Syntax,2023.2.3,Win32,163.9344262,,,,,210.1473,212.147,o,1,212.147,212.147,,0,,,212.147,212.1473,,212.1473,212.1473,,0,49,49,49,1,cvmt/test_items/t50.jpeg,o,0.667,,,,,,,,,,,,,,,,,,,,,,,,,,,
,,100565,006,1,2024-03-06_22h37.47.489,Memory and Syntax,2023.2.3,Win32,163.9344262,,,,,212.1474,214.1464,n,1,214.1464,214.1465,,0,,,214.1465,214.1467,,214.1467,214.1467,,0,50,50,50,1,cvmt/test_items/t51.jpeg,n,0.8412,,,,,,,,,,,,,,,,,,,,,,,,,,,
,,100565,006,1,2024-03-06_22h37.47.489,Memory and Syntax,2023.2.3,Win32,163.9344262,,,,,214.1467,216.1442,o,1,216.1442,216.1443,,0,,,216.1444,216.1445,,216.1445,216.1445,,0,51,51,51,1,cvmt/test_items/t52.jpeg,o,1.1008,,,,,,,,,,,,,,,,,,,,,,,,,,,
,,100565,006,1,2024-03-06_22h37.47.489,Memory and Syntax,2023.2.3,Win32,163.9344262,,,,,216.1446,218.1404,o,1,218.1404,218.1406,,0,,,218.1406,218.1407,,218.1407,218.1407,,0,52,52,52,1,cvmt/test_items/t53.jpeg,o,0.8506,,,,,,,,,,,,,,,,,,,,,,,,,,,
,,100565,006,1,2024-03-06_22h37.47.489,Memory and Syntax,2023.2.3,Win32,163.9344262,,,,,218.1409,220.1342,o,1,220.1342,220.1343,,0,,,220.1343,220.1345,,220.1345,220.1345,,0,53,53,53,1,cvmt/test_items/t54.jpeg,o,0.6839,,,,,,,,,,,,,,,,,,,,,,,,,,,
,,100565,006,1,2024-03-06_22h37.47.489,Memory and Syntax,2023.2.3,Win32,163.9344262,,,,,220.1346,222.1335,n,0,222.1335,222.1336,,0,,,222.1336,222.1338,,222.1338,222.1338,,0,54,54,54,1,cvmt/test_items/t55.jpeg,o,1.0313,,,,,,,,,,,,,,,,,,,,,,,,,,,
,,100565,006,1,2024-03-06_22h37.47.489,Memory and Syntax,2023.2.3,Win32,163.9344262,,,,,222.1339,224.1354,n,0,224.1354,224.1355,,0,,,224.1355,224.1357,,224.1357,224.1358,,0,55,55,55,1,cvmt/test_items/t56.jpeg,o,0.7842,,,,,,,,,,,,,,,,,,,,,,,,,,,
,,100565,006,1,2024-03-06_22h37.47.489,Memory and Syntax,2023.2.3,Win32,163.9344262,,,,,224.1358,226.1375,o,1,226.1375,226.1376,,0,,,226.1376,226.1377,,226.1377,226.1378,,0,56,56,56,1,cvmt/test_items/t57.jpeg,o,0.7504,,,,,,,,,,,,,,,,,,,,,,,,,,,
,,100565,006,1,2024-03-06_22h37.47.489,Memory and Syntax,2023.2.3,Win32,163.9344262,,,,,226.1379,228.1396,n,1,228.1396,228.1396,,0,,,228.1396,228.1399,,228.1399,228.1399,,0,57,57,57,1,cvmt/test_items/t58.jpeg,n,1.6181,,,,,,,,,,,,,,,,,,,,,,,,,,,
,,100565,006,1,2024-03-06_22h37.47.489,Memory and Syntax,2023.2.3,Win32,163.9344262,,,,,228.1399,230.1415,n,1,230.1415,230.1416,,0,,,230.1416,230.1417,,230.1417,230.1418,,0,58,58,58,1,cvmt/test_items/t59.jpeg,n,1.6181,,,,,,,,,,,,,,,,,,,,,,,,,,,
,,100565,006,1,2024-03-06_22h37.47.489,Memory and Syntax,2023.2.3,Win32,163.9344262,,,,,230.1418,232.1435,o,1,232.1435,232.1435,,0,,,232.1435,232.1437,,232.1438,232.1438,,0,59,59,59,1,cvmt/test_items/t60.jpeg,o,0.6838,,,,,,,,,,,,,,,,,,,,,,,,,,,
,,100565,006,1,2024-03-06_22h37.47.489,Memory and Syntax,2023.2.3,Win32,163.9344262,,,,,232.1438,234.1456,n,0,234.1456,234.1457,,0,,,234.1457,234.1458,,234.1458,234.1459,,0,60,60,60,1,cvmt/test_items/t61.jpeg,o,0.6838,,,,,,,,,,,,,,,,,,,,,,,,,,,
,,100565,006,1,2024-03-06_22h37.47.489,Memory and Syntax,2023.2.3,Win32,163.9344262,,,,,234.146,236.1476,n,0,236.1476,236.1477,,0,,,236.1477,236.1479,,236.1479,236.1479,,0,61,61,61,1,cvmt/test_items/t62.jpeg,o,0.6838,,,,,,,,,,,,,,,,,,,,,,,,,,,
,,100565,006,1,2024-03-06_22h37.47.489,Memory and Syntax,2023.2.3,Win32,163.9344262,,,,,236.148,238.1497,o,1,238.1497,238.1498,,0,,,238.1498,238.1499,,238.1499,238.15,,0,62,62,62,1,cvmt/test_items/t63.jpeg,o,0.6555,,,,,,,,,,,,,,,,,,,,,,,,,,,
,,100565,006,1,2024-03-06_22h37.47.489,Memory and Syntax,2023.2.3,Win32,163.9344262,,,,,238.1501,240.1515,n,0,240.1516,240.1517,,0,,,240.1517,240.152,,240.152,240.152,,0,63,63,63,1,cvmt/test_items/t64.jpeg,o,0.7339,,,,,,,,,,,,,,,,,,,,,,,,,,,
,,100565,006,1,2024-03-06_22h37.47.489,Memory and Syntax,2023.2.3,Win32,163.9344262,,,,,240.152,242.1535,o,1,242.1535,242.1535,,0,,,242.1535,242.1538,,242.1538,242.1538,,0,64,64,64,1,cvmt/test_items/t65.jpeg,o,0.7006,,,,,,,,,,,,,,,,,,,,,,,,,,,
,,100565,006,1,2024-03-06_22h37.47.489,Memory and Syntax,2023.2.3,Win32,163.9344262,,,,,242.1539,244.1556,n,0,244.1556,244.1557,,0,,,244.1557,244.1559,,244.1559,244.156,,0,65,65,65,1,cvmt/test_items/t66.jpeg,o,0.7573,,,,,,,,,,,,,,,,,,,,,,,,,,,
,,100565,006,1,2024-03-06_22h37.47.489,Memory and Syntax,2023.2.3,Win32,163.9344262,,,,,244.1561,246.1575,n,1,246.1576,246.1577,,0,,,246.1577,246.1578,,246.1578,246.1579,,0,66,66,66,1,cvmt/test_items/t67.jpeg,n,0.9506,,,,,,,,,,,,,,,,,,,,,,,,,,,
,,100565,006,1,2024-03-06_22h37.47.489,Memory and Syntax,2023.2.3,Win32,163.9344262,,,,,246.158,248.1595,n,0,248.1595,248.1596,,0,,,248.1596,248.1598,,248.1598,248.1598,,0,67,67,67,1,cvmt/test_items/t68.jpeg,o,0.6336,,,,,,,,,,,,,,,,,,,,,,,,,,,
,,100565,006,1,2024-03-06_22h37.47.489,Memory and Syntax,2023.2.3,Win32,163.9344262,,,,,248.16,250.1617,n,0,250.1617,250.1617,,0,,,250.1617,250.1619,,250.1619,250.1619,,0,68,68,68,1,cvmt/test_items/t69.jpeg,o,0.8171,,,,,,,,,,,,,,,,,,,,,,,,,,,
,,100565,006,1,2024-03-06_22h37.47.489,Memory and Syntax,2023.2.3,Win32,163.9344262,,,,,250.162,252.1583,o,1,252.1583,252.1584,,0,,,252.1584,252.1586,,252.1586,252.1586,,0,69,69,69,1,cvmt/test_items/t70.jpeg,o,0.6003,,,,,,,,,,,,,,,,,,,,,,,,,,,
,,100565,006,1,2024-03-06_22h37.47.489,Memory and Syntax,2023.2.3,Win32,163.9344262,,,,,252.1587,254.1583,o,0,254.1583,254.1584,,0,,,254.1584,254.1586,,254.1586,254.1586,,0,70,70,70,1,cvmt/test_items/t71.jpeg,n,0.5775,,,,,,,,,,,,,,,,,,,,,,,,,,,
,,100565,006,1,2024-03-06_22h37.47.489,Memory and Syntax,2023.2.3,Win32,163.9344262,,,,,254.1587,256.151,o,1,256.151,256.151,,0,,,256.151,256.1513,,256.1513,256.1513,,0,71,71,71,1,cvmt/test_items/t72.jpeg,o,0.5499,,,,,,,,,,,,,,,,,,,,,,,,,,,
,,100565,006,1,2024-03-06_22h37.47.489,Memory and Syntax,2023.2.3,Win32,163.9344262,,,,,256.1514,258.1529,o,1,258.153,258.1531,,0,,,258.1531,258.1532,,258.1532,258.1532,,0,72,72,72,1,cvmt/test_items/t73.jpeg,o,0.5547,,,,,,,,,,,,,,,,,,,,,,,,,,,
,,100565,006,1,2024-03-06_22h37.47.489,Memory and Syntax,2023.2.3,Win32,163.9344262,,,,,258.1534,260.155,o,1,260.155,260.1551,,0,,,260.1551,260.1553,,260.1553,260.1553,,0,73,73,73,1,cvmt/test_items/t74.jpeg,o,0.817,,,,,,,,,,,,,,,,,,,,,,,,,,,
,,100565,006,1,2024-03-06_22h37.47.489,Memory and Syntax,2023.2.3,Win32,163.9344262,,,,,260.1554,262.1571,o,1,262.1571,262.1572,,0,,,262.1572,262.1573,,262.1573,262.1573,,0,74,74,74,1,cvmt/test_items/t75.jpeg,o,0.6387,,,,,,,,,,,,,,,,,,,,,,,,,,,
,,100565,006,1,2024-03-06_22h37.47.489,Memory and Syntax,2023.2.3,Win32,163.9344262,,,,,262.1574,264.159,o,1,264.1591,264.1591,,0,,,264.1591,264.1593,,264.1593,264.1593,,0,75,75,75,1,cvmt/test_items/t76.jpeg,o,0.4668,,,,,,,,,,,,,,,,,,,,,,,,,,,
,,100565,006,1,2024-03-06_22h37.47.489,Memory and Syntax,2023.2.3,Win32,163.9344262,,,,,264.1594,266.161,o,1,266.1611,266.1612,,0,,,266.1612,266.1613,,266.1613,266.1614,,0,76,76,76,1,cvmt/test_items/t77.jpeg,o,0.5994,,,,,,,,,,,,,,,,,,,,,,,,,,,
,,100565,006,1,2024-03-06_22h37.47.489,Memory and Syntax,2023.2.3,Win32,163.9344262,,,,,266.1615,268.163,o,1,268.163,268.1631,,0,,,268.1631,268.1632,,268.1632,268.1633,,0,77,77,77,1,cvmt/test_items/t78.jpeg,o,0.734,,,,,,,,,,,,,,,,,,,,,,,,,,,
,,100565,006,1,2024-03-06_22h37.47.489,Memory and Syntax,2023.2.3,Win32,163.9344262,,,,,268.1634,270.165,n,0,270.165,270.1651,,0,,,270.1651,270.1652,,270.1653,270.1653,,0,78,78,78,1,cvmt/test_items/t79.jpeg,o,0.8005,,,,,,,,,,,,,,,,,,,,,,,,,,,
,,100565,006,1,2024-03-06_22h37.47.489,Memory and Syntax,2023.2.3,Win32,163.9344262,,,,,270.1654,272.1671,o,0,272.1671,272.1673,,0,,,272.1673,272.1675,,272.1675,272.1675,,0,79,79,79,1,cvmt/test_items/t80.jpeg,n,1.2675,,,,,,,,,,,,,,,,,,,,,,,,,,,
,,100565,006,1,2024-03-06_22h37.47.489,Memory and Syntax,2023.2.3,Win32,163.9344262,,,,,272.1676,274.1691,o,1,274.1691,274.1691,,0,,,274.1691,274.1693,,274.1693,274.1693,,0,80,80,80,1,cvmt/test_items/t81.jpeg,o,0.6527,,,,,,,,,,,,,,,,,,,,,,,,,,,
,,100565,006,1,2024-03-06_22h37.47.489,Memory and Syntax,2023.2.3,Win32,163.9344262,,,,,274.1695,276.1711,o,1,276.1711,276.1711,,0,,,276.1712,276.1713,,276.1713,276.1714,,0,81,81,81,1,cvmt/test_items/t82.jpeg,o,0.5837,,,,,,,,,,,,,,,,,,,,,,,,,,,
,,100565,006,1,2024-03-06_22h37.47.489,Memory and Syntax,2023.2.3,Win32,163.9344262,,,,,276.1715,278.173,o,1,278.173,278.173,,0,,,278.173,278.1733,,278.1733,278.1733,,0,82,82,82,1,cvmt/test_items/t83.jpeg,o,0.8671,,,,,,,,,,,,,,,,,,,,,,,,,,,
,,100565,006,1,2024-03-06_22h37.47.489,Memory and Syntax,2023.2.3,Win32,163.9344262,,,,,278.1734,280.1751,o,1,280.1751,280.1752,,0,,,280.1753,280.1755,,280.1755,280.1756,,0,83,83,83,1,cvmt/test_items/t84.jpeg,o,0.9166,,,,,,,,,,,,,,,,,,,,,,,,,,,
,,100565,006,1,2024-03-06_22h37.47.489,Memory and Syntax,2023.2.3,Win32,163.9344262,,,,,280.1757,282.177,n,0,282.1771,282.1772,,0,,,282.1772,282.1774,,282.1774,282.1775,,0,84,84,84,1,cvmt/test_items/t85.jpeg,o,0.9673,,,,,,,,,,,,,,,,,,,,,,,,,,,
,,100565,006,1,2024-03-06_22h37.47.489,Memory and Syntax,2023.2.3,Win32,163.9344262,,,,,282.1775,284.1792,o,1,284.1792,284.1792,,0,,,284.1793,284.1794,,284.1794,284.1794,,0,85,85,85,1,cvmt/test_items/t86.jpeg,o,0.5835,,,,,,,,,,,,,,,,,,,,,,,,,,,
,,100565,006,1,2024-03-06_22h37.47.489,Memory and Syntax,2023.2.3,Win32,163.9344262,,,,,284.1795,286.1811,o,1,286.1811,286.1812,,0,,,286.1812,286.1814,,286.1814,286.1815,,0,86,86,86,1,cvmt/test_items/t87.jpeg,o,0.8005,,,,,,,,,,,,,,,,,,,,,,,,,,,
,,100565,006,1,2024-03-06_22h37.47.489,Memory and Syntax,2023.2.3,Win32,163.9344262,,,,,286.1815,288.1831,n,1,288.1831,288.1831,,0,,,288.1832,288.1833,,288.1833,288.1833,,0,87,87,87,1,cvmt/test_items/t88.jpeg,n,0.7505,,,,,,,,,,,,,,,,,,,,,,,,,,,
,,100565,006,1,2024-03-06_22h37.47.489,Memory and Syntax,2023.2.3,Win32,163.9344262,,,,,288.1834,290.185,o,0,290.185,290.1851,,0,,,290.1851,290.1853,,290.1853,290.1853,,0,88,88,88,1,cvmt/test_items/t89.jpeg,n,0.6335,,,,,,,,,,,,,,,,,,,,,,,,,,,
,,100565,006,1,2024-03-06_22h37.47.489,Memory and Syntax,2023.2.3,Win32,163.9344262,,,,,290.1854,292.1823,o,1,292.1824,292.1825,,0,,,292.1825,292.1827,,292.1827,292.1827,,0,89,89,89,1,cvmt/test_items/t90.jpeg,o,0.5836,,,,,,,,,,,,,,,,,,,,,,,,,,,
,,100565,006,1,2024-03-06_22h37.47.489,Memory and Syntax,2023.2.3,Win32,163.9344262,,,,,292.1828,294.1892,n,0,294.1892,294.1893,,0,,,294.1893,294.1894,,294.1895,294.1895,,0,90,90,90,1,cvmt/test_items/t91.jpeg,o,1.1059,,,,,,,,,,,,,,,,,,,,,,,,,,,
,,100565,006,1,2024-03-06_22h37.47.489,Memory and Syntax,2023.2.3,Win32,163.9344262,,,,,294.1895,296.1911,o,1,296.1911,296.1911,,0,,,296.1912,296.1914,,296.1914,296.1914,,0,91,91,91,1,cvmt/test_items/t92.jpeg,o,0.6359,,,,,,,,,,,,,,,,,,,,,,,,,,,
,,100565,006,1,2024-03-06_22h37.47.489,Memory and Syntax,2023.2.3,Win32,163.9344262,,,,,296.1915,298.1882,o,1,298.1882,298.1884,,0,,,298.1884,298.1885,,298.1885,298.1886,,0,92,92,92,1,cvmt/test_items/t93.jpeg,o,0.7504,,,,,,,,,,,,,,,,,,,,,,,,,,,
,,100565,006,1,2024-03-06_22h37.47.489,Memory and Syntax,2023.2.3,Win32,163.9344262,,,,,298.1887,300.1952,n,0,300.1953,300.1954,,0,,,300.1955,300.1956,,300.1956,300.1956,,0,93,93,93,1,cvmt/test_items/t94.jpeg,o,0.8173,,,,,,,,,,,,,,,,,,,,,,,,,,,
,,100565,006,1,2024-03-06_22h37.47.489,Memory and Syntax,2023.2.3,Win32,163.9344262,,,,,300.1957,302.1972,o,1,302.1972,302.1973,,0,,,302.1973,302.1975,,302.1976,302.1976,,0,94,94,94,1,cvmt/test_items/t95.jpeg,o,0.6858,,,,,,,,,,,,,,,,,,,,,,,,,,,
,,100565,006,1,2024-03-06_22h37.47.489,Memory and Syntax,2023.2.3,Win32,163.9344262,,,,,302.1977,304.1992,o,1,304.1993,304.1993,,0,,,304.1993,304.1995,,304.1996,304.1997,,0,95,95,95,1,cvmt/test_items/t96.jpeg,o,0.667,,,,,,,,,,,,,,,,,,,,,,,,,,,
,,100565,006,1,2024-03-06_22h37.47.489,Memory and Syntax,2023.2.3,Win32,163.9344262,,,,,304.1998,306.2011,o,1,306.2011,306.2012,,0,,,306.2012,306.2014,,306.2014,306.2014,,0,96,96,96,1,cvmt/test_items/t97.jpeg,o,0.5744,,,,,,,,,,,,,,,,,,,,,,,,,,,
,,100565,006,1,2024-03-06_22h37.47.489,Memory and Syntax,2023.2.3,Win32,163.9344262,,,,,306.2015,308.2033,n,1,308.2033,308.2034,,0,,,308.2034,308.2037,,308.2037,308.2037,,0,97,97,97,1,cvmt/test_items/t98.jpeg,n,0.6004,,,,,,,,,,,,,,,,,,,,,,,,,,,
,,100565,006,1,2024-03-06_22h37.47.489,Memory and Syntax,2023.2.3,Win32,163.9344262,,,,,308.2037,310.2052,o,1,310.2052,310.2054,,0,,,310.2054,310.2056,,310.2056,310.2056,,0,98,98,98,1,cvmt/test_items/t99.jpeg,o,0.6338,,,,,,,,,,,,,,,,,,,,,,,,,,,
,,100565,006,1,2024-03-06_22h37.47.489,Memory and Syntax,2023.2.3,Win32,163.9344262,,,,,310.2057,312.2071,o,1,312.2071,312.2072,,0,,,312.2072,312.2074,,312.2075,312.2075,,0,99,99,99,1,cvmt/test_items/t100.jpeg,o,0.7095,,,,,,,,,,,,,,,,,,,,,,,,,,,
,,100565,006,1,2024-03-06_22h37.47.489,Memory and Syntax,2023.2.3,Win32,163.9344262,,,,,312.2075,314.2093,o,1,314.2093,314.2093,,0,,,314.2093,314.2095,,314.2095,314.2095,,0,100,100,100,1,cvmt/test_items/t101.jpeg,o,0.5052,,,,,,,,,,,,,,,,,,,,,,,,,,,
,,100565,006,1,2024-03-06_22h37.47.489,Memory and Syntax,2023.2.3,Win32,163.9344262,,,,,314.2096,316.2113,o,1,316.2113,316.2113,,0,,,316.2113,316.2116,,316.2116,316.2117,,0,101,101,101,1,cvmt/test_items/t102.jpeg,o,0.5691,,,,,,,,,,,,,,,,,,,,,,,,,,,
,,100565,006,1,2024-03-06_22h37.47.489,Memory and Syntax,2023.2.3,Win32,163.9344262,,,,,316.2117,318.2131,o,1,318.2131,318.2133,,0,,,318.2133,318.2135,,318.2135,318.2135,,0,102,102,102,1,cvmt/test_items/t103.jpeg,o,0.6529,,,,,,,,,,,,,,,,,,,,,,,,,,,
,,100565,006,1,2024-03-06_22h37.47.489,Memory and Syntax,2023.2.3,Win32,163.9344262,,,,,318.2135,320.2153,o,1,320.2153,320.2154,,0,,,320.2154,320.2156,,320.2156,320.2156,,0,103,103,103,1,cvmt/test_items/t104.jpeg,o,0.4591,,,,,,,,,,,,,,,,,,,,,,,,,,,
,,100565,006,1,2024-03-06_22h37.47.489,Memory and Syntax,2023.2.3,Win32,163.9344262,,,,,320.2157,322.2173,n,1,322.2173,322.2173,,0,,,322.2173,322.2176,,322.2176,322.2177,,0,104,104,104,1,cvmt/test_items/t105.jpeg,n,0.7671,,,,,,,,,,,,,,,,,,,,,,,,,,,
,,100565,006,1,2024-03-06_22h37.47.489,Memory and Syntax,2023.2.3,Win32,163.9344262,,,,,322.2178,324.2194,o,1,324.2194,324.2194,,0,,,324.2194,324.2196,,324.2196,324.2196,,0,105,105,105,1,cvmt/test_items/t106.jpeg,o,0.7672,,,,,,,,,,,,,,,,,,,,,,,,,,,
,,100565,006,1,2024-03-06_22h37.47.489,Memory and Syntax,2023.2.3,Win32,163.9344262,,,,,324.2197,326.2213,o,1,326.2213,326.2214,,0,,,326.2214,326.2217,,326.2217,326.2217,,0,106,106,106,1,cvmt/test_items/t107.jpeg,o,0.7342,,,,,,,,,,,,,,,,,,,,,,,,,,,
,,100565,006,1,2024-03-06_22h37.47.489,Memory and Syntax,2023.2.3,Win32,163.9344262,,,,,326.2218,328.2234,n,0,328.2234,328.2234,,0,,,328.2234,328.2237,,328.2237,328.2237,,0,107,107,107,1,cvmt/test_items/t108.jpeg,o,0.7589,,,,,,,,,,,,,,,,,,,,,,,,,,,
,,100565,006,1,2024-03-06_22h37.47.489,Memory and Syntax,2023.2.3,Win32,163.9344262,,,,,328.2238,330.2253,n,0,330.2253,330.2255,,0,,,330.2255,330.2257,,330.2257,330.2257,,0,108,108,108,1,cvmt/test_items/t109.jpeg,o,0.934,,,,,,,,,,,,,,,,,,,,,,,,,,,
,,100565,006,1,2024-03-06_22h37.47.489,Memory and Syntax,2023.2.3,Win32,163.9344262,,,,,330.2258,332.2272,n,0,332.2272,332.2273,,0,,,332.2273,332.2275,,332.2275,332.2275,,0,109,109,109,1,cvmt/test_items/t110.jpeg,o,0.9838,,,,,,,,,,,,,,,,,,,,,,,,,,,
,,100565,006,1,2024-03-06_22h37.47.489,Memory and Syntax,2023.2.3,Win32,163.9344262,,,,,332.2276,334.2293,o,1,334.2293,334.2295,,0,,,334.2295,334.2297,,334.2297,334.2297,,0,110,110,110,1,cvmt/test_items/t111.jpeg,o,0.6233,,,,,,,,,,,,,,,,,,,,,,,,,,,
,,100565,006,1,2024-03-06_22h37.47.489,Memory and Syntax,2023.2.3,Win32,163.9344262,,,,,334.2298,336.2318,o,1,336.2319,336.2319,,0,,,336.232,336.2322,,336.2322,336.2323,,0,111,111,111,1,cvmt/test_items/t112.jpeg,o,0.934,,,,,,,,,,,,,,,,,,,,,,,,,,,
,,100565,006,1,2024-03-06_22h37.47.489,Memory and Syntax,2023.2.3,Win32,163.9344262,,,,,336.2325,338.2334,n,1,338.2334,338.2334,,0,,,338.2334,338.2337,,338.2337,338.2337,,0,112,112,112,1,cvmt/test_items/t113.jpeg,n,0.6597,,,,,,,,,,,,,,,,,,,,,,,,,,,
,,100565,006,1,2024-03-06_22h37.47.489,Memory and Syntax,2023.2.3,Win32,163.9344262,,,,,338.2339,340.2355,n,0,340.2355,340.2356,,0,,,340.2356,340.236,,340.236,340.236,,0,113,113,113,1,cvmt/test_items/t114.jpeg,o,0.816,,,,,,,,,,,,,,,,,,,,,,,,,,,
,,100565,006,1,2024-03-06_22h37.47.489,Memory and Syntax,2023.2.3,Win32,163.9344262,,,,,340.2361,342.2373,n,0,342.2373,342.2374,,0,,,342.2374,342.2376,,342.2377,342.2377,,0,114,114,114,1,cvmt/test_items/t115.jpeg,o,0.5524,,,,,,,,,,,,,,,,,,,,,,,,,,,
,,100565,006,1,2024-03-06_22h37.47.489,Memory and Syntax,2023.2.3,Win32,163.9344262,,,,,342.2378,344.2393,o,1,344.2393,344.2395,,0,,,344.2396,344.2397,,344.2398,344.2398,,0,115,115,115,1,cvmt/test_items/t116.jpeg,o,1.2164,,,,,,,,,,,,,,,,,,,,,,,,,,,
,,100565,006,1,2024-03-06_22h37.47.489,Memory and Syntax,2023.2.3,Win32,163.9344262,,,,,344.2399,346.2414,o,1,346.2414,346.2415,,0,,,346.2415,346.2418,,346.2418,346.2418,,0,116,116,116,1,cvmt/test_items/t117.jpeg,o,0.681,,,,,,,,,,,,,,,,,,,,,,,,,,,
,,100565,006,1,2024-03-06_22h37.47.489,Memory and Syntax,2023.2.3,Win32,163.9344262,,,,,346.2418,348.2433,o,1,348.2433,348.2434,,0,,,348.2434,348.2435,,348.2435,348.2435,,0,117,117,117,1,cvmt/test_items/t118.jpeg,o,1.1845,,,,,,,,,,,,,,,,,,,,,,,,,,,
,,100565,006,1,2024-03-06_22h37.47.489,Memory and Syntax,2023.2.3,Win32,163.9344262,,,,,348.2436,350.2453,o,1,350.2453,350.2454,,0,,,350.2455,350.2457,,350.2457,350.2457,,0,118,118,118,1,cvmt/test_items/t119.jpeg,o,0.7502,,,,,,,,,,,,,,,,,,,,,,,,,,,
,,100565,006,1,2024-03-06_22h37.47.489,Memory and Syntax,2023.2.3,Win32,163.9344262,,,,,350.2458,352.2474,n,0,352.2475,352.2475,,0,,,352.2475,352.2477,,352.2477,352.2477,,0,119,119,119,1,cvmt/test_items/t120.jpeg,o,0.6656,,,,,,,,,,,,,,,,,,,,,,,,,,,
,,100565,006,1,2024-03-06_22h37.47.489,Memory and Syntax,2023.2.3,Win32,163.9344262,,,,,352.2478,354.2494,n,0,354.2494,354.2495,,0,,,354.2495,354.2497,,354.2498,354.2498,,0,120,120,120,1,cvmt/test_items/t121.jpeg,o,0.8001,,,,,,,,,,,,,,,,,,,,,,,,,,,
,,100565,006,1,2024-03-06_22h37.47.489,Memory and Syntax,2023.2.3,Win32,163.9344262,,,,,354.2499,356.2513,o,1,356.2513,356.2515,,0,,,356.2515,356.2516,,356.2516,356.2516,,0,121,121,121,1,cvmt/test_items/t122.jpeg,o,0.5834,,,,,,,,,,,,,,,,,,,,,,,,,,,
,,100565,006,1,2024-03-06_22h37.47.489,Memory and Syntax,2023.2.3,Win32,163.9344262,,,,,356.2517,358.2535,n,1,358.2535,358.2535,,0,,,358.2535,358.2538,,358.2538,358.2539,,0,122,122,122,1,cvmt/test_items/t123.jpeg,n,0.7983,,,,,,,,,,,,,,,,,,,,,,,,,,,
,,100565,006,1,2024-03-06_22h37.47.489,Memory and Syntax,2023.2.3,Win32,163.9344262,,,,,358.2539,360.2556,n,0,360.2556,360.2557,,0,,,360.2557,360.2559,,360.2559,360.256,,0,123,123,123,1,cvmt/test_items/t124.jpeg,o,0.8524,,,,,,,,,,,,,,,,,,,,,,,,,,,
,,100565,006,1,2024-03-06_22h37.47.489,Memory and Syntax,2023.2.3,Win32,163.9344262,,,,,360.256,362.2575,o,1,362.2575,362.2575,,0,,,362.2576,362.2578,,362.2578,362.2578,,0,124,124,124,1,cvmt/test_items/t125.jpeg,o,0.9626,,,,,,,,,,,,,,,,,,,,,,,,,,,
,,100565,006,1,2024-03-06_22h37.47.489,Memory and Syntax,2023.2.3,Win32,163.9344262,,,,,362.2579,364.2594,n,0,364.2595,364.2596,,0,,,364.2596,364.2599,,364.2599,364.2599,,0,125,125,125,1,cvmt/test_items/t126.jpeg,o,1.7513,,,,,,,,,,,,,,,,,,,,,,,,,,,
,,100565,006,1,2024-03-06_22h37.47.489,Memory and Syntax,2023.2.3,Win32,163.9344262,,,,,364.26,366.2614,o,1,366.2615,366.2615,,0,,,366.2616,366.2618,,366.2618,366.2618,,0,126,126,126,1,cvmt/test_items/t127.jpeg,o,0.6953,,,,,,,,,,,,,,,,,,,,,,,,,,,
,,100565,006,1,2024-03-06_22h37.47.489,Memory and Syntax,2023.2.3,Win32,163.9344262,,,,,366.2619,368.2635,o,1,368.2635,368.2636,,0,,,368.2636,368.2639,,368.2639,368.2639,,0,127,127,127,1,cvmt/test_items/t128.jpeg,o,0.6001,,,,,,,,,,,,,,,,,,,,,,,,,,,
,,100565,006,1,2024-03-06_22h37.47.489,Memory and Syntax,2023.2.3,Win32,163.9344262,,,,,368.264,370.2655,n,0,370.2655,370.2656,,0,,,370.2656,370.2658,,370.2658,370.2658,,0,128,128,128,1,cvmt/test_items/t129.jpeg,o,0.5167,,,,,,,,,,,,,,,,,,,,,,,,,,,
,,100565,006,1,2024-03-06_22h37.47.489,Memory and Syntax,2023.2.3,Win32,163.9344262,,,,,370.2659,372.2675,o,1,372.2675,372.2676,,0,,,372.2676,372.2677,,372.2677,372.2677,,0,129,129,129,1,cvmt/test_items/t130.jpeg,o,0.6972,,,,,,,,,,,,,,,,,,,,,,,,,,,
,,100565,006,1,2024-03-06_22h37.47.489,Memory and Syntax,2023.2.3,Win32,163.9344262,,,,,372.2679,374.2696,n,1,374.2696,374.2696,,0,,,374.2696,374.2698,,374.2698,374.2698,,0,130,130,130,1,cvmt/test_items/t131.jpeg,n,0.5824,,,,,,,,,,,,,,,,,,,,,,,,,,,
,,100565,006,1,2024-03-06_22h37.47.489,Memory and Syntax,2023.2.3,Win32,163.9344262,,,,,374.2699,376.2716,o,1,376.2716,376.2716,,0,,,376.2716,376.2718,,376.2718,376.2719,,0,131,131,131,1,cvmt/test_items/t132.jpeg,o,0.5077,,,,,,,,,,,,,,,,,,,,,,,,,,,
,,100565,006,1,2024-03-06_22h37.47.489,Memory and Syntax,2023.2.3,Win32,163.9344262,,,,,376.272,378.2735,n,0,378.2735,378.2736,,0,,,378.2736,378.2738,,378.2738,378.2738,,0,132,132,132,1,cvmt/test_items/t133.jpeg,o,0.7506,,,,,,,,,,,,,,,,,,,,,,,,,,,
,,100565,006,1,2024-03-06_22h37.47.489,Memory and Syntax,2023.2.3,Win32,163.9344262,,,,,378.2739,380.2756,o,1,380.2756,380.2756,,0,,,380.2756,380.2758,,380.2758,380.2758,,0,133,133,133,1,cvmt/test_items/t134.jpeg,o,1.0503,,,,,,,,,,,,,,,,,,,,,,,,,,,
,,100565,006,1,2024-03-06_22h37.47.489,Memory and Syntax,2023.2.3,Win32,163.9344262,,,,,380.2759,382.2776,n,0,382.2777,382.2778,,0,,,382.2778,382.278,,382.278,382.278,,0,134,134,134,1,cvmt/test_items/t135.jpeg,o,0.9504,,,,,,,,,,,,,,,,,,,,,,,,,,,
,,100565,006,1,2024-03-06_22h37.47.489,Memory and Syntax,2023.2.3,Win32,163.9344262,,,,,,,,,,,,,,,,,,,,,,,,,,,,,,,,,,382.2782,382.2783,0.0002,382.2835,395.8087,space,12.613,,395.8128,401.1648,7,5.3507,0,0,0,0,1,2,1,filler,18A,"Jason drove his car, and Tara rode her bike."
,,100565,006,1,2024-03-06_22h37.47.489,Memory and Syntax,2023.2.3,Win32,163.9344262,,,,,,,,,,,,,,,,,,,,,,,,,,,,,,,,,,,,,,,,,,401.1649,405.4178,7,4.2515,0,1,1,1,1,2,2,WO,15A,You watered the tiny cactus.
,,100565,006,1,2024-03-06_22h37.47.489,Memory and Syntax,2023.2.3,Win32,163.9344262,,,,,,,,,,,,,,,,,,,,,,,,,,,,,,,,,,,,,,,,,,405.4187,410.1893,4,4.7694,0,2,2,2,1,2,3,control,19B,The flowers plant seasonally to attract hummingbirds.
,,100565,006,1,2024-03-06_22h37.47.489,Memory and Syntax,2023.2.3,Win32,163.9344262,,,,,,,,,,,,,,,,,,,,,,,,,,,,,,,,,,,,,,,,,,410.1902,413.8297,5,3.6375,0,3,3,3,1,2,4,WOV,20B,Created Fatima a minimalistic website.
,,100565,006,1,2024-03-06_22h37.47.489,Memory and Syntax,2023.2.3,Win32,163.9344262,,,,,,,,,,,,,,,,,,,,,,,,,,,,,,,,,,,,,,,,,,413.8301,416.312,7,2.4812,0,4,4,4,1,2,5,WO,14A,Many people attended the book release.
,,100565,006,1,2024-03-06_22h37.47.489,Memory and Syntax,2023.2.3,Win32,163.9344262,,,,,,,,,,,,,,,,,,,,,,,,,,,,,,,,,,,,,,,,,,416.3128,419.5154,1,3.202,0,5,5,5,1,2,6,control,22B,Anywhere has nobody gone.
,,100565,006,1,2024-03-06_22h37.47.489,Memory and Syntax,2023.2.3,Win32,163.9344262,,,,,,,,,,,,,,,,,,,,,,,,,,,,,,,,,,,,,,,,,,419.5155,423.3872,7,3.8703,0,6,6,6,1,2,7,filler,17A,A dog bigger than my corgi snarled.
,,100565,006,1,2024-03-06_22h37.47.489,Memory and Syntax,2023.2.3,Win32,163.9344262,,,,,,,,,,,,,,,,,,,,,,,,,,,,,,,,,,,,,,,,,,423.388,427.5735,6.9,4.1847,0,7,7,7,1,2,8,filler,15A,There are leaves burnt.
,,100565,006,1,2024-03-06_22h37.47.489,Memory and Syntax,2023.2.3,Win32,163.9344262,,,,,,,,,,,,,,,,,,,,,,,,,,,,,,,,,,,,,,,,,,427.5743,430.5995,1,3.0212,0,8,8,8,1,2,9,WOV,22B,Enjoyed we the sunset on the beach.
,,100565,006,1,2024-03-06_22h37.47.489,Memory and Syntax,2023.2.3,Win32,163.9344262,,,,,,,,,,,,,,,,,,,,,,,,,,,,,,,,,,,,,,,,,,430.6006,433.6175,7,3.0129,0,9,9,9,1,2,10,ASV,22B,Haru hid herself from the manager's wrath.
,,100565,006,1,2024-03-06_22h37.47.489,Memory and Syntax,2023.2.3,Win32,163.9344262,,,,,,,,,,,,,,,,,,,,,,,,,,,,,,,,,,,,,,,,,,433.6176,436.0652,7,2.4469,0,10,10,10,1,2,11,WO,18A,The cat pushed the dog off the couch.
,,100565,006,1,2024-03-06_22h37.47.489,Memory and Syntax,2023.2.3,Win32,163.9344262,,,,,,,,,,,,,,,,,,,,,,,,,,,,,,,,,,,,,,,,,,436.0654,438.3675,7,2.3015,0,11,11,11,1,2,12,WO,13A,Janelle painted the fence.
,,100565,006,1,2024-03-06_22h37.47.489,Memory and Syntax,2023.2.3,Win32,163.9344262,,,,,,,,,,,,,,,,,,,,,,,,,,,,,,,,,,,,,,,,,,438.3684,440.7367,7,2.3677,0,12,12,12,1,2,13,filler,13A,Carla appears to have graduated high school.
,,100565,006,1,2024-03-06_22h37.47.489,Memory and Syntax,2023.2.3,Win32,163.9344262,,,,,,,,,,,,,,,,,,,,,,,,,,,,,,,,,,,,,,,,,,440.7368,444.4971,7,3.7597,0,13,13,13,1,2,14,AS,17A,He cried tears of joy at the heartwarming reunion.
,,100565,006,1,2024-03-06_22h37.47.489,Memory and Syntax,2023.2.3,Win32,163.9344262,,,,,,,,,,,,,,,,,,,,,,,,,,,,,,,,,,,,,,,,,,444.4979,446.8095,7,2.3109,0,14,14,14,1,2,15,WO,16A,Armadillos dug several holes.
,,100565,006,1,2024-03-06_22h37.47.489,Memory and Syntax,2023.2.3,Win32,163.9344262,,,,,,,,,,,,,,,,,,,,,,,,,,,,,,,,,,,,,,,,,,446.8097,450.413,3.1,3.6024,0,15,15,15,1,2,16,ASV,24B,She ascended herself the ladder.
,,100565,006,1,2024-03-06_22h37.47.489,Memory and Syntax,2023.2.3,Win32,163.9344262,,,,,,,,,,,,,,,,,,,,,,,,,,,,,,,,,,,,,,,,,,450.4138,453.5828,1,3.1682,0,16,16,16,1,2,17,WOV,24B,Forgot she her keys at home.
,,100565,006,1,2024-03-06_22h37.47.489,Memory and Syntax,2023.2.3,Win32,163.9344262,,,,,,,,,,,,,,,,,,,,,,,,,,,,,,,,,,,,,,,,,,453.5829,458.5711,1,4.9875,0,17,17,17,1,2,18,ASV,23B,She loved herself the market a lot.
,,100565,006,1,2024-03-06_22h37.47.489,Memory and Syntax,2023.2.3,Win32,163.9344262,,,,,,,,,,,,,,,,,,,,,,,,,,,,,,,,,,,,,,,,,,458.572,464.7143,1.1,6.1416,0,18,18,18,1,2,19,control,24B,The government gives any help to no poor people.
,,100565,006,1,2024-03-06_22h37.47.489,Memory and Syntax,2023.2.3,Win32,163.9344262,,,,,,,,,,,,,,,,,,,,,,,,,,,,,,,,,,,,,,,,,,464.7152,467.13,6.8,2.4141,0,19,19,19,1,2,20,ASV,20B,They laughed themselves at the joke.
,,100565,006,1,2024-03-06_22h37.47.489,Memory and Syntax,2023.2.3,Win32,163.9344262,,,,,,,,,,,,,,,,,,,,,,,,,,,,,,,,,,,,,,,,,,467.1301,470.5166,1,3.3854,0,20,20,20,1,2,21,WOV,23B,Kissed Nova their child's forehead.
,,100565,006,1,2024-03-06_22h37.47.489,Memory and Syntax,2023.2.3,Win32,163.9344262,,,,,,,,,,,,,,,,,,,,,,,,,,,,,,,,,,,,,,,,,,470.5174,473.3694,7,2.8513,0,21,21,21,1,2,22,filler,14A,Angelica and Alberto hate each other.
,,100565,006,1,2024-03-06_22h37.47.489,Memory and Syntax,2023.2.3,Win32,163.9344262,,,,,,,,,,,,,,,,,,,,,,,,,,,,,,,,,,,,,,,,,,473.3696,475.6883,1,2.3179,0,22,22,22,1,2,23,control,23B,I seem eating sushi.
,,100565,006,1,2024-03-06_22h37.47.489,Memory and Syntax,2023.2.3,Win32,163.9344262,,,,,,,,,,,,,,,,,,,,,,,,,,,,,,,,,,,,,,,,,,475.6884,478.1074,6.8,2.4181,0,23,23,23,1,2,24,AS,16A,He solved the complicated puzzle.
,,100565,006,1,2024-03-06_22h37.47.489,Memory and Syntax,2023.2.3,Win32,163.9344262,,,,,,,,,,,,,,,,,,,,,,,,,,,,,,,,,,,,,,,,,,478.1076,484.9504,7,6.8417,0,24,24,24,1,2,25,AS,13A,You were bored with the book.
,,100565,006,1,2024-03-06_22h37.47.489,Memory and Syntax,2023.2.3,Win32,163.9344262,,,,,,,,,,,,,,,,,,,,,,,,,,,,,,,,,,,,,,,,,,484.9515,487.4001,7,2.448,0,25,25,25,1,2,26,ASV,21B,The villagers scattered themselves in all directions.
,,100565,006,1,2024-03-06_22h37.47.489,Memory and Syntax,2023.2.3,Win32,163.9344262,,,,,,,,,,,,,,,,,,,,,,,,,,,,,,,,,,,,,,,,,,487.4002,489.9693,7,2.5685,0,26,26,26,1,2,27,WO,17A,She pulled the blinds hurriedly.
,,100565,006,1,2024-03-06_22h37.47.489,Memory and Syntax,2023.2.3,Win32,163.9344262,,,,,,,,,,,,,,,,,,,,,,,,,,,,,,,,,,,,,,,,,,489.9695,492.3574,7,2.3873,0,27,27,27,1,2,28,AS,14A,A dog tumbled down the hill.
,,100565,006,1,2024-03-06_22h37.47.489,Memory and Syntax,2023.2.3,Win32,163.9344262,,,,,,,,,,,,,,,,,,,,,,,,,,,,,,,,,,,,,,,,,,492.3582,495.4583,7,3.0995,0,28,28,28,1,2,29,ASV,19B,The pastor fell himself down the stairs.
,,100565,006,1,2024-03-06_22h37.47.489,Memory and Syntax,2023.2.3,Win32,163.9344262,,,,,,,,,,,,,,,,,,,,,,,,,,,,,,,,,,,,,,,,,,495.4584,498.3944,7,2.9353,0,29,29,29,1,2,30,control,21B,There desires to be a new deal in the works.
,,100565,006,1,2024-03-06_22h37.47.489,Memory and Syntax,2023.2.3,Win32,163.9344262,,,,,,,,,,,,,,,,,,,,,,,,,,,,,,,,,,,,,,,,,,498.3952,502.4899,7,4.09,0,30,30,30,1,2,31,AS,18A,The teacher was tired of the bland school lunches.
,,100565,006,1,2024-03-06_22h37.47.489,Memory and Syntax,2023.2.3,Win32,163.9344262,,,,,,,,,,,,,,,,,,,,,,,,,,,,,,,,,,,,,,,,,,502.4909,504.901,7,2.4096,0,31,31,31,1,2,32,AS,15A,The patient calmed down.
,,100565,006,1,2024-03-06_22h37.47.489,Memory and Syntax,2023.2.3,Win32,163.9344262,,,,,,,,,,,,,,,,,,,,,,,,,,,,,,,,,,,,,,,,,,504.9011,507.1624,7,2.259,0,32,32,32,1,2,33,WOV,21B,Bought Mona the car.
,,100565,006,1,2024-03-06_22h37.47.489,Memory and Syntax,2023.2.3,Win32,163.9344262,,,,,,,,,,,,,,,,,,,,,,,,,,,,,,,,,,,,,,,,,,507.1625,510.2737,7,3.11,0,33,33,33,1,2,34,WOV,19B,Debated the historian the actor.
,,100565,006,1,2024-03-06_22h37.47.489,Memory and Syntax,2023.2.3,Win32,163.9344262,,,,,,,,,,,,,,,,,,,,,,,,,,,,,,,,,,,,,,,,,,510.2748,512.6755,7,2.3999,0,34,34,34,1,2,35,control,20B,"If Aarthi probably comes, the party will be a disaster."