load.started,load.stopped,Sona ID,Participant ID,Session,date,expName,psychopyVersion,OS,frameRate,cvmtInstr.started,cvmtInstr.stopped,cvmtTaskInstr.started,cvmtTaskInstr.stopped,presentDesign.started,presentDesign.stopped,cvmt_key_resp.keys,cvmt_key_resp.corr,cvmtNoResp.started,cvmtNoResp.stopped,cvmt_key_resp2.keys,cvmt_key_resp2.corr,cvmt_key_resp2.rt,cvmt_key_resp2.duration,cvmtSampleFB.started,cvmtSampleFB.stopped,key_resp_15.keys,cvmtSampleFBFinal.started,cvmtSampleFBFinal.stopped,cvmt_final_samp_fb_key_resp.keys,cvmtTrials.thisRepN,cvmtTrials.thisTrialN,cvmtTrials.thisN,cvmtTrials.thisIndex,cvmtTrials.ran,cvmt_design,old_or_new,cvmt_key_resp.rt,cvmt_key_resp.duration,key_resp_15.rt,key_resp_15.duration,cvmt_final_samp_fb_key_resp.rt,cvmt_final_samp_fb_key_resp.duration
0.001,0.203,107635,054,1,2024-03-08_08h55.13.039,Memory and Syntax,2023.2.3,MacIntel,62.5,,,,,,,,,,,,,,,,,,,,,,,,,,,,,,,,,
,,107635,054,1,2024-03-08_08h55.13.039,Memory and Syntax,2023.2.3,MacIntel,62.5,0.219,9.333,9.338,10.433,10.455,12.45,,0,12.451,22.651,n,1,10.174,,22.652,22.655,,22.656,22.657,,0,0,0,0,1,cvmt/sample/s1.jpg,n,,,,,,
,,107635,054,1,2024-03-08_08h55.13.039,Memory and Syntax,2023.2.3,MacIntel,62.5,,,,,22.659,24.649,n,1,24.65,24.65,,0,,,24.65,24.651,,24.651,24.651,,0,1,1,1,1,cvmt/sample/s2.jpg,n,0.936,,,,,
,,107635,054,1,2024-03-08_08h55.13.039,Memory and Syntax,2023.2.3,MacIntel,62.5,,,,,24.652,26.65,n,0,26.65,26.65,,0,,,26.65,33.616,c,33.617,33.617,,0,2,2,2,1,cvmt/sample/s3.jpg,o,1.356,,6.939,,,
,,107635,054,1,2024-03-08_08h55.13.039,Memory and Syntax,2023.2.3,MacIntel,62.5,,,,,33.618,35.617,,0,35.617,38.483,o,0,2.851,,38.484,42.633,c,42.634,42.634,,0,3,3,3,1,cvmt/sample/s4.jpg,n,,,4.122,,,
,,107635,054,1,2024-03-08_08h55.13.039,Memory and Syntax,2023.2.3,MacIntel,62.5,,,,,42.635,44.633,,0,44.633,48.733,o,0,4.084,,48.734,52.384,c,52.384,52.384,,0,4,4,4,1,cvmt/sample/s5.jpg,n,,,3.633,,,
,,107635,054,1,2024-03-08_08h55.13.039,Memory and Syntax,2023.2.3,MacIntel,62.5,,,,,52.385,54.384,,0,54.384,55.567,n,1,1.167,,55.567,55.573,,55.573,55.574,,0,5,5,5,1,cvmt/sample/s6.jpg,n,,,,,,
,,107635,054,1,2024-03-08_08h55.13.039,Memory and Syntax,2023.2.3,MacIntel,62.5,,,,,55.574,57.567,,0,57.568,57.718,n,0,0.134,,57.718,63.118,c,63.118,63.118,,0,6,6,6,1,cvmt/sample/s7.jpg,o,,,5.372,,,
,,107635,054,1,2024-03-08_08h55.13.039,Memory and Syntax,2023.2.3,MacIntel,62.5,,,,,63.119,65.118,,0,65.118,66.201,o,0,1.069,,66.201,74.084,c,74.085,74.085,,0,7,7,7,1,cvmt/sample/s8.jpg,n,,,7.86,,,
,,107635,054,1,2024-03-08_08h55.13.039,Memory and Syntax,2023.2.3,MacIntel,62.5,,,,,74.086,76.084,,0,76.085,76.785,o,0,0.685,,76.785,79.951,c,79.951,79.952,,0,8,8,8,1,cvmt/sample/s9.jpg,n,,,3.151,,,
,,107635,054,1,2024-03-08_08h55.13.039,Memory and Syntax,2023.2.3,MacIntel,62.5,,,,,79.952,81.951,o,0,81.952,81.952,,0,,,81.952,84.852,c,84.852,84.852,,0,9,9,9,1,cvmt/sample/s10.jpg,n,1.96,,2.884,,,
,,107635,054,1,2024-03-08_08h55.13.039,Memory and Syntax,2023.2.3,MacIntel,62.5,,,,,84.852,86.852,,0,86.852,87.335,n,0,0.469,,87.335,92.102,c,92.102,101.252,r,0,10,10,10,1,cvmt/sample/s11.jpg,o,,,4.742,,9.121,
,,107635,054,1,2024-03-08_08h55.13.039,Memory and Syntax,2023.2.3,MacIntel,62.5,,,,,101.253,103.252,,0,103.253,109.553,o,0,6.284,,109.554,115.303,c,115.303,115.31,,1,0,11,0,1,cvmt/sample/s1.jpg,n,,,5.721,,,
,,107635,054,1,2024-03-08_08h55.13.039,Memory and Syntax,2023.2.3,MacIntel,62.5,,,,,115.31,117.303,,0,117.303,122.303,n,1,4.989,,122.303,122.307,,122.307,122.307,,1,1,12,1,1,cvmt/sample/s2.jpg,n,,,,,,
,,107635,054,1,2024-03-08_08h55.13.039,Memory and Syntax,2023.2.3,MacIntel,62.5,,,,,122.307,124.304,,0,124.304,126.37,n,0,2.059,,126.37,131.236,c,131.237,131.237,,1,2,13,2,1,cvmt/sample/s3.jpg,o,,,4.843,,,
,,107635,054,1,2024-03-08_08h55.13.039,Memory and Syntax,2023.2.3,MacIntel,62.5,,,,,131.238,133.237,,0,133.237,134.786,n,1,1.539,,134.786,134.79,,134.79,134.79,,1,3,14,3,1,cvmt/sample/s4.jpg,n,,,,,,
,,107635,054,1,2024-03-08_08h55.13.039,Memory and Syntax,2023.2.3,MacIntel,62.5,,,,,134.79,136.787,,0,136.787,139.287,o,0,2.492,,139.287,142.154,c,142.154,142.154,,1,4,15,4,1,cvmt/sample/s5.jpg,n,,,2.849,,,
,,107635,054,1,2024-03-08_08h55.13.039,Memory and Syntax,2023.2.3,MacIntel,62.5,,,,,142.155,144.154,,0,144.154,145.686,o,0,1.517,,145.686,149.104,c,149.104,149.105,,1,5,16,5,1,cvmt/sample/s6.jpg,n,,,3.402,,,
,,107635,054,1,2024-03-08_08h55.13.039,Memory and Syntax,2023.2.3,MacIntel,62.5,,,,,149.105,151.104,o,1,151.104,151.105,,0,,,151.105,151.111,,151.111,151.111,,1,6,17,6,1,cvmt/sample/s7.jpg,o,1.45,,,,,
,,107635,054,1,2024-03-08_08h55.13.039,Memory and Syntax,2023.2.3,MacIntel,62.5,,,,,151.111,153.104,o,0,153.104,154.671,o,0,1.552,,154.671,156.087,c,156.087,156.088,,1,7,18,7,1,cvmt/sample/s8.jpg,n,1.861,,1.39,,,
,,107635,054,1,2024-03-08_08h55.13.039,Memory and Syntax,2023.2.3,MacIntel,62.5,,,,,156.088,158.088,o,0,158.088,159.471,n,1,1.367,,159.471,159.479,,159.479,159.479,,1,8,19,8,1,cvmt/sample/s9.jpg,n,1.232,,,,,
,,107635,054,1,2024-03-08_08h55.13.039,Memory and Syntax,2023.2.3,MacIntel,62.5,,,,,159.48,161.471,n,1,161.472,161.472,,0,,,161.472,161.473,,161.473,161.473,,1,9,20,9,1,cvmt/sample/s10.jpg,n,0.545,,,,,
,,107635,054,1,2024-03-08_08h55.13.039,Memory and Syntax,2023.2.3,MacIntel,62.5,,,,,161.473,163.472,,0,163.472,164.188,o,1,0.702,,164.188,164.188,,164.188,259.891,r,1,10,21,10,1,cvmt/sample/s11.jpg,o,,,,,95.683,
,,107635,054,1,2024-03-08_08h55.13.039,Memory and Syntax,2023.2.3,MacIntel,62.5,,,,,259.892,261.892,,0,261.892,268.843,n,1,6.929,,268.843,268.844,,268.844,268.851,,2,0,22,0,1,cvmt/sample/s1.jpg,n,,,,,,
,,107635,054,1,2024-03-08_08h55.13.039,Memory and Syntax,2023.2.3,MacIntel,62.5,,,,,268.851,270.843,n,1,270.843,270.843,,0,,,270.843,270.844,,270.844,270.844,,2,1,23,1,1,cvmt/sample/s2.jpg,n,1.725,,,,,
,,107635,054,1,2024-03-08_08h55.13.039,Memory and Syntax,2023.2.3,MacIntel,62.5,,,,,270.845,272.843,,0,272.843,274.459,o,1,1.602,,274.459,274.46,,274.46,274.46,,2,2,24,2,1,cvmt/sample/s3.jpg,o,,,,,,
,,107635,054,1,2024-03-08_08h55.13.039,Memory and Syntax,2023.2.3,MacIntel,62.5,,,,,274.46,276.459,,0,276.46,280.559,o,0,4.086,,280.559,286.793,c,286.793,286.793,,2,3,25,3,1,cvmt/sample/s4.jpg,n,,,6.206,,,
,,107635,054,1,2024-03-08_08h55.13.039,Memory and Syntax,2023.2.3,MacIntel,62.5,,,,,286.794,288.793,,0,288.793,289.11,n,1,0.3,,289.11,289.116,,289.116,289.117,,2,4,26,4,1,cvmt/sample/s5.jpg,n,,,,,,
,,107635,054,1,2024-03-08_08h55.13.039,Memory and Syntax,2023.2.3,MacIntel,62.5,,,,,289.117,291.11,o,0,291.11,291.111,,0,,,291.111,297.327,c,297.327,297.327,,2,5,27,5,1,cvmt/sample/s6.jpg,n,1.576,,6.189,,,
,,107635,054,1,2024-03-08_08h55.13.039,Memory and Syntax,2023.2.3,MacIntel,62.5,,,,,297.328,299.327,,0,299.327,301.444,o,1,2.1,,301.444,301.449,,301.449,301.449,,2,6,28,6,1,cvmt/sample/s7.jpg,o,,,,,,
,,107635,054,1,2024-03-08_08h55.13.039,Memory and Syntax,2023.2.3,MacIntel,62.5,,,,,301.45,303.444,o,0,303.444,303.444,,0,,,303.444,306.944,c,306.944,306.944,,2,7,29,7,1,cvmt/sample/s8.jpg,n,0.911,,3.473,,,
,,107635,054,1,2024-03-08_08h55.13.039,Memory and Syntax,2023.2.3,MacIntel,62.5,,,,,306.945,308.944,,0,308.944,310.061,n,1,1.106,,310.061,310.065,,310.065,310.066,,2,8,30,8,1,cvmt/sample/s9.jpg,n,,,,,,
,,107635,054,1,2024-03-08_08h55.13.039,Memory and Syntax,2023.2.3,MacIntel,62.5,,,,,310.066,312.061,n,1,312.061,312.061,,0,,,312.061,312.062,,312.062,312.062,,2,9,31,9,1,cvmt/sample/s10.jpg,n,0.946,,,,,
,,107635,054,1,2024-03-08_08h55.13.039,Memory and Syntax,2023.2.3,MacIntel,62.5,,,,,312.062,314.061,n,0,314.061,314.061,,0,,,314.062,317.978,c,317.978,321.311,r,2,10,32,10,1,cvmt/sample/s11.jpg,o,0.081,,3.894,,3.305,
,,107635,054,1,2024-03-08_08h55.13.039,Memory and Syntax,2023.2.3,MacIntel,62.5,,,,,321.312,323.311,,0,323.311,336.578,n,1,13.251,,336.579,336.586,,336.586,336.587,,3,0,33,0,1,cvmt/sample/s1.jpg,n,,,,,,
,,107635,054,1,2024-03-08_08h55.13.039,Memory and Syntax,2023.2.3,MacIntel,62.5,,,,,336.588,338.578,n,1,338.578,338.579,,0,,,338.579,338.579,,338.579,338.579,,3,1,34,1,1,cvmt/sample/s2.jpg,n,1.965,,,,,
,,107635,054,1,2024-03-08_08h55.13.039,Memory and Syntax,2023.2.3,MacIntel,62.5,,,,,338.579,340.579,,0,340.579,347.095,o,1,6.504,,347.095,347.095,,347.095,347.095,,3,2,35,2,1,cvmt/sample/s3.jpg,o,,,,,,
,,107635,054,1,2024-03-08_08h55.13.039,Memory and Syntax,2023.2.3,MacIntel,62.5,,,,,347.095,349.095,,0,349.095,349.229,n,1,0.117,,349.229,349.23,,349.23,349.23,,3,3,36,3,1,cvmt/sample/s4.jpg,n,,,,,,
,,107635,054,1,2024-03-08_08h55.13.039,Memory and Syntax,2023.2.3,MacIntel,62.5,,,,,349.231,351.229,,0,351.229,357.246,n,1,6.008,,357.246,357.246,,357.247,357.247,,3,4,37,4,1,cvmt/sample/s5.jpg,n,,,,,,
,,107635,054,1,2024-03-08_08h55.13.039,Memory and Syntax,2023.2.3,MacIntel,62.5,,,,,357.247,359.246,o,0,359.246,359.246,,0,,,359.247,363.329,c,363.329,363.33,,3,5,38,5,1,cvmt/sample/s6.jpg,n,1.499,,4.056,,,