load.started,load.stopped,Sona ID,Participant ID,Session,date,expName,psychopyVersion,OS,frameRate,cvmtInstr.started,cvmtInstr.stopped,cvmtTaskInstr.started,cvmtTaskInstr.stopped,presentDesign.started,presentDesign.stopped,cvmt_key_resp.keys,cvmt_key_resp.corr,cvmt_key_resp.rt,cvmt_key_resp.duration,cvmtNoResp.started,cvmtNoResp.stopped,cvmt_key_resp2.keys,cvmt_key_resp2.corr,cvmtSampleFB.started,cvmtSampleFB.stopped,key_resp_15.keys,cvmtSampleFBFinal.started,cvmtSampleFBFinal.stopped,cvmt_final_samp_fb_key_resp.keys,cvmtTrials.thisRepN,cvmtTrials.thisTrialN,cvmtTrials.thisN,cvmtTrials.thisIndex,cvmtTrials.ran,cvmt_design,old_or_new,key_resp_15.rt,key_resp_15.duration,cvmt_final_samp_fb_key_resp.rt,cvmt_final_samp_fb_key_resp.duration,cvmt_key_resp2.rt,cvmt_key_resp2.duration,cvmtDelay.started,cvmtDelay.stopped,cvmt timer,engAJT_instr.started,engAJT_instr.stopped,start_ajt.keys,start_ajt.rt,start_ajt.duration,engAJT.started,engAJT.stopped,acceptability.response,acceptability.rt,engAJT_trials.thisRepN,engAJT_trials.thisTrialN,engAJT_trials.thisN,engAJT_trials.thisIndex,engAJT_trials.ran,ajt_list,list_position,condition,item,testSent
0.001,0.197,108199,022,1,2024-03-12_14h01.37.066,Memory and Syntax,2023.2.3,MacIntel,111.1111111,,,,,,,,,,,,,,,,,,,,,,,,,,,,,,,,,,,,,,,,,,,,,,,,,,,,,,,
,,108199,022,1,2024-03-12_14h01.37.066,Memory and Syntax,2023.2.3,MacIntel,111.1111111,0.232,43.045,43.053,59.888,59.926,61.902,n,1,1.289,,61.902,61.905,,0,61.906,61.907,,61.908,61.909,,0,0,0,0,1,cvmt/sample/s1.jpg,n,,,,,,,,,,,,,,,,,,,,,,,,,,,,
,,108199,022,1,2024-03-12_14h01.37.066,Memory and Syntax,2023.2.3,MacIntel,111.1111111,,,,,61.909,63.901,n,1,0.969,,63.901,63.901,,0,63.901,63.902,,63.902,63.902,,0,1,1,1,1,cvmt/sample/s2.jpg,n,,,,,,,,,,,,,,,,,,,,,,,,,,,,
,,108199,022,1,2024-03-12_14h01.37.066,Memory and Syntax,2023.2.3,MacIntel,111.1111111,,,,,63.902,65.901,o,1,1.308,,65.901,65.902,,0,65.902,65.902,,65.902,65.903,,0,2,2,2,1,cvmt/sample/s3.jpg,o,,,,,,,,,,,,,,,,,,,,,,,,,,,,
,,108199,022,1,2024-03-12_14h01.37.066,Memory and Syntax,2023.2.3,MacIntel,111.1111111,,,,,65.903,67.902,n,1,0.707,,67.902,67.902,,0,67.902,67.903,,67.903,67.903,,0,3,3,3,1,cvmt/sample/s4.jpg,n,,,,,,,,,,,,,,,,,,,,,,,,,,,,
,,108199,022,1,2024-03-12_14h01.37.066,Memory and Syntax,2023.2.3,MacIntel,111.1111111,,,,,67.904,69.901,n,1,0.675,,69.901,69.901,,0,69.901,69.902,,69.902,69.902,,0,4,4,4,1,cvmt/sample/s5.jpg,n,,,,,,,,,,,,,,,,,,,,,,,,,,,,
,,108199,022,1,2024-03-12_14h01.37.066,Memory and Syntax,2023.2.3,MacIntel,111.1111111,,,,,69.902,71.902,n,1,0.876,,71.902,71.902,,0,71.902,71.903,,71.903,71.903,,0,5,5,5,1,cvmt/sample/s6.jpg,n,,,,,,,,,,,,,,,,,,,,,,,,,,,,
,,108199,022,1,2024-03-12_14h01.37.066,Memory and Syntax,2023.2.3,MacIntel,111.1111111,,,,,71.904,73.899,n,0,0.558,,73.899,73.899,,0,73.899,79.917,c,79.918,79.918,,0,6,6,6,1,cvmt/sample/s7.jpg,o,5.984,,,,,,,,,,,,,,,,,,,,,,,,,,,
,,108199,022,1,2024-03-12_14h01.37.066,Memory and Syntax,2023.2.3,MacIntel,111.1111111,,,,,79.918,81.918,o,0,1.474,,81.918,81.918,,0,81.918,86.935,c,86.935,86.935,,0,7,7,7,1,cvmt/sample/s8.jpg,n,4.975,,,,,,,,,,,,,,,,,,,,,,,,,,,
,,108199,022,1,2024-03-12_14h01.37.066,Memory and Syntax,2023.2.3,MacIntel,111.1111111,,,,,86.936,88.932,n,1,0.981,,88.932,88.932,,0,88.932,88.935,,88.935,88.935,,0,8,8,8,1,cvmt/sample/s9.jpg,n,,,,,,,,,,,,,,,,,,,,,,,,,,,,
,,108199,022,1,2024-03-12_14h01.37.066,Memory and Syntax,2023.2.3,MacIntel,111.1111111,,,,,88.936,90.933,n,1,0.861,,90.933,90.933,,0,90.933,90.933,,90.933,90.934,,0,9,9,9,1,cvmt/sample/s10.jpg,n,,,,,,,,,,,,,,,,,,,,,,,,,,,,
,,108199,022,1,2024-03-12_14h01.37.066,Memory and Syntax,2023.2.3,MacIntel,111.1111111,,,,,90.934,92.934,o,1,0.831,,92.934,92.934,,0,92.934,92.934,,92.934,101.455,c,0,10,10,10,1,cvmt/sample/s11.jpg,o,,,8.466,,,,,,,,,,,,,,,,,,,,,,,,,
,,108199,022,1,2024-03-12_14h01.37.066,Memory and Syntax,2023.2.3,MacIntel,111.1111111,,,101.457,113.485,113.498,115.498,n,1,0.977,,115.498,115.499,,0,115.499,115.499,,115.499,115.502,,0,0,0,0,1,cvmt/test_items/t1.jpeg,n,,,,,,,,,,,,,,,,,,,,,,,,,,,,
,,108199,022,1,2024-03-12_14h01.37.066,Memory and Syntax,2023.2.3,MacIntel,111.1111111,,,,,115.502,117.502,n,1,0.713,,117.502,117.502,,0,117.502,117.503,,117.503,117.503,,0,1,1,1,1,cvmt/test_items/t2.jpeg,n,,,,,,,,,,,,,,,,,,,,,,,,,,,,
,,108199,022,1,2024-03-12_14h01.37.066,Memory and Syntax,2023.2.3,MacIntel,111.1111111,,,,,117.504,119.5,n,0,0.977,,119.5,119.5,,0,119.5,119.501,,119.501,119.501,,0,2,2,2,1,cvmt/test_items/t3.jpeg,o,,,,,,,,,,,,,,,,,,,,,,,,,,,,
,,108199,022,1,2024-03-12_14h01.37.066,Memory and Syntax,2023.2.3,MacIntel,111.1111111,,,,,119.501,121.502,n,0,0.561,,121.502,121.502,,0,121.502,121.503,,121.503,121.503,,0,3,3,3,1,cvmt/test_items/t4.jpeg,o,,,,,,,,,,,,,,,,,,,,,,,,,,,,
,,108199,022,1,2024-03-12_14h01.37.066,Memory and Syntax,2023.2.3,MacIntel,111.1111111,,,,,121.503,123.5,n,0,0.529,,123.5,123.5,,0,123.5,123.501,,123.501,123.501,,0,4,4,4,1,cvmt/test_items/t5.jpeg,o,,,,,,,,,,,,,,,,,,,,,,,,,,,,
,,108199,022,1,2024-03-12_14h01.37.066,Memory and Syntax,2023.2.3,MacIntel,111.1111111,,,,,123.501,125.499,n,0,0.708,,125.499,125.499,,0,125.499,125.499,,125.499,125.499,,0,5,5,5,1,cvmt/test_items/t6.jpeg,o,,,,,,,,,,,,,,,,,,,,,,,,,,,,
,,108199,022,1,2024-03-12_14h01.37.066,Memory and Syntax,2023.2.3,MacIntel,111.1111111,,,,,125.5,127.5,n,0,0.568,,127.5,127.5,,0,127.5,127.501,,127.501,127.501,,0,6,6,6,1,cvmt/test_items/t7.jpeg,o,,,,,,,,,,,,,,,,,,,,,,,,,,,,
,,108199,022,1,2024-03-12_14h01.37.066,Memory and Syntax,2023.2.3,MacIntel,111.1111111,,,,,127.501,129.499,o,1,0.781,,129.499,129.499,,0,129.499,129.499,,129.499,129.499,,0,7,7,7,1,cvmt/test_items/t8.jpeg,o,,,,,,,,,,,,,,,,,,,,,,,,,,,,
,,108199,022,1,2024-03-12_14h01.37.066,Memory and Syntax,2023.2.3,MacIntel,111.1111111,,,,,129.499,131.5,n,0,1.064,,131.5,131.5,,0,131.5,131.5,,131.5,131.5,,0,8,8,8,1,cvmt/test_items/t9.jpeg,o,,,,,,,,,,,,,,,,,,,,,,,,,,,,
,,108199,022,1,2024-03-12_14h01.37.066,Memory and Syntax,2023.2.3,MacIntel,111.1111111,,,,,131.5,133.501,n,0,1.245,,133.501,133.502,,0,133.502,133.502,,133.502,133.502,,0,9,9,9,1,cvmt/test_items/t10.jpeg,o,,,,,,,,,,,,,,,,,,,,,,,,,,,,
,,108199,022,1,2024-03-12_14h01.37.066,Memory and Syntax,2023.2.3,MacIntel,111.1111111,,,,,133.503,135.499,n,1,1.722,,135.499,135.499,,0,135.499,135.499,,135.499,135.499,,0,10,10,10,1,cvmt/test_items/t11.jpeg,n,,,,,,,,,,,,,,,,,,,,,,,,,,,,
,,108199,022,1,2024-03-12_14h01.37.066,Memory and Syntax,2023.2.3,MacIntel,111.1111111,,,,,135.5,137.499,n,0,0.674,,137.499,137.499,,0,137.499,137.499,,137.499,137.499,,0,11,11,11,1,cvmt/test_items/t12.jpeg,o,,,,,,,,,,,,,,,,,,,,,,,,,,,,
,,108199,022,1,2024-03-12_14h01.37.066,Memory and Syntax,2023.2.3,MacIntel,111.1111111,,,,,137.499,139.498,o,1,0.941,,139.498,139.498,,0,139.498,139.498,,139.498,139.498,,0,12,12,12,1,cvmt/test_items/t13.jpeg,o,,,,,,,,,,,,,,,,,,,,,,,,,,,,
,,108199,022,1,2024-03-12_14h01.37.066,Memory and Syntax,2023.2.3,MacIntel,111.1111111,,,,,139.498,141.501,n,0,0.784,,141.501,141.501,,0,141.501,141.502,,141.502,141.502,,0,13,13,13,1,cvmt/test_items/t14.jpeg,o,,,,,,,,,,,,,,,,,,,,,,,,,,,,
,,108199,022,1,2024-03-12_14h01.37.066,Memory and Syntax,2023.2.3,MacIntel,111.1111111,,,,,141.502,143.501,o,1,0.843,,143.501,143.501,,0,143.501,143.501,,143.501,143.502,,0,14,14,14,1,cvmt/test_items/t15.jpeg,o,,,,,,,,,,,,,,,,,,,,,,,,,,,,
,,108199,022,1,2024-03-12_14h01.37.066,Memory and Syntax,2023.2.3,MacIntel,111.1111111,,,,,143.502,145.499,o,1,1.565,,145.499,145.499,,0,145.499,145.499,,145.499,145.499,,0,15,15,15,1,cvmt/test_items/t16.jpeg,o,,,,,,,,,,,,,,,,,,,,,,,,,,,,
,,108199,022,1,2024-03-12_14h01.37.066,Memory and Syntax,2023.2.3,MacIntel,111.1111111,,,,,145.499,147.501,n,0,0.803,,147.501,147.501,,0,147.501,147.502,,147.502,147.502,,0,16,16,16,1,cvmt/test_items/t17.jpeg,o,,,,,,,,,,,,,,,,,,,,,,,,,,,,
,,108199,022,1,2024-03-12_14h01.37.066,Memory and Syntax,2023.2.3,MacIntel,111.1111111,,,,,147.503,149.501,n,0,0.775,,149.501,149.502,,0,149.502,149.502,,149.502,149.503,,0,17,17,17,1,cvmt/test_items/t18.jpeg,o,,,,,,,,,,,,,,,,,,,,,,,,,,,,
,,108199,022,1,2024-03-12_14h01.37.066,Memory and Syntax,2023.2.3,MacIntel,111.1111111,,,,,149.503,151.5,n,1,0.59,,151.5,151.5,,0,151.5,151.5,,151.5,151.5,,0,18,18,18,1,cvmt/test_items/t19.jpeg,n,,,,,,,,,,,,,,,,,,,,,,,,,,,,
,,108199,022,1,2024-03-12_14h01.37.066,Memory and Syntax,2023.2.3,MacIntel,111.1111111,,,,,151.501,153.499,n,0,1.33,,153.499,153.499,,0,153.499,153.499,,153.499,153.499,,0,19,19,19,1,cvmt/test_items/t20.jpeg,o,,,,,,,,,,,,,,,,,,,,,,,,,,,,
,,108199,022,1,2024-03-12_14h01.37.066,Memory and Syntax,2023.2.3,MacIntel,111.1111111,,,,,153.499,155.5,n,0,0.706,,155.5,155.5,,0,155.5,155.5,,155.5,155.5,,0,20,20,20,1,cvmt/test_items/t21.jpeg,o,,,,,,,,,,,,,,,,,,,,,,,,,,,,
,,108199,022,1,2024-03-12_14h01.37.066,Memory and Syntax,2023.2.3,MacIntel,111.1111111,,,,,155.5,157.5,n,0,1.741,,157.5,157.5,,0,157.5,157.5,,157.5,157.5,,0,21,21,21,1,cvmt/test_items/t22.jpeg,o,,,,,,,,,,,,,,,,,,,,,,,,,,,,
,,108199,022,1,2024-03-12_14h01.37.066,Memory and Syntax,2023.2.3,MacIntel,111.1111111,,,,,157.5,159.5,n,1,0.873,,159.5,159.5,,0,159.5,159.5,,159.5,159.5,,0,22,22,22,1,cvmt/test_items/t23.jpeg,n,,,,,,,,,,,,,,,,,,,,,,,,,,,,
,,108199,022,1,2024-03-12_14h01.37.066,Memory and Syntax,2023.2.3,MacIntel,111.1111111,,,,,159.5,161.5,n,1,1.07,,161.5,161.501,,0,161.501,161.501,,161.501,161.501,,0,23,23,23,1,cvmt/test_items/t24.jpeg,n,,,,,,,,,,,,,,,,,,,,,,,,,,,,
,,108199,022,1,2024-03-12_14h01.37.066,Memory and Syntax,2023.2.3,MacIntel,111.1111111,,,,,161.502,163.5,o,1,0.769,,163.5,163.501,,0,163.501,163.501,,163.501,163.501,,0,24,24,24,1,cvmt/test_items/t25.jpeg,o,,,,,,,,,,,,,,,,,,,,,,,,,,,,
,,108199,022,1,2024-03-12_14h01.37.066,Memory and Syntax,2023.2.3,MacIntel,111.1111111,,,,,163.502,165.5,n,1,0.752,,165.5,165.5,,0,165.5,165.501,,165.501,165.501,,0,25,25,25,1,cvmt/test_items/t26.jpeg,n,,,,,,,,,,,,,,,,,,,,,,,,,,,,
,,108199,022,1,2024-03-12_14h01.37.066,Memory and Syntax,2023.2.3,MacIntel,111.1111111,,,,,165.501,167.499,o,1,1.048,,167.499,167.499,,0,167.499,167.499,,167.499,167.499,,0,26,26,26,1,cvmt/test_items/t27.jpeg,o,,,,,,,,,,,,,,,,,,,,,,,,,,,,
,,108199,022,1,2024-03-12_14h01.37.066,Memory and Syntax,2023.2.3,MacIntel,111.1111111,,,,,167.499,169.5,n,1,0.585,,169.5,169.501,,0,169.501,169.501,,169.501,169.501,,0,27,27,27,1,cvmt/test_items/t28.jpeg,n,,,,,,,,,,,,,,,,,,,,,,,,,,,,
,,108199,022,1,2024-03-12_14h01.37.066,Memory and Syntax,2023.2.3,MacIntel,111.1111111,,,,,169.501,171.498,n,1,1.029,,171.498,171.499,,0,171.499,171.499,,171.499,171.499,,0,28,28,28,1,cvmt/test_items/t29.jpeg,n,,,,,,,,,,,,,,,,,,,,,,,,,,,,
,,108199,022,1,2024-03-12_14h01.37.066,Memory and Syntax,2023.2.3,MacIntel,111.1111111,,,,,171.499,173.5,n,0,1.226,,173.5,173.5,,0,173.5,173.501,,173.501,173.501,,0,29,29,29,1,cvmt/test_items/t30.jpeg,o,,,,,,,,,,,,,,,,,,,,,,,,,,,,
,,108199,022,1,2024-03-12_14h01.37.066,Memory and Syntax,2023.2.3,MacIntel,111.1111111,,,,,173.501,175.5,,0,,,175.5,175.567,n,0,175.567,175.567,,175.567,175.567,,0,30,30,30,1,cvmt/test_items/t31.jpeg,o,,,,,0.028,,,,,,,,,,,,,,,,,,,,,,,
,,108199,022,1,2024-03-12_14h01.37.066,Memory and Syntax,2023.2.3,MacIntel,111.1111111,,,,,175.567,177.567,n,1,1.715,,177.567,177.567,,0,177.567,177.567,,177.567,177.567,,0,31,31,31,1,cvmt/test_items/t32.jpeg,n,,,,,,,,,,,,,,,,,,,,,,,,,,,,
,,108199,022,1,2024-03-12_14h01.37.066,Memory and Syntax,2023.2.3,MacIntel,111.1111111,,,,,177.567,179.566,n,1,0.797,,179.566,179.566,,0,179.566,179.566,,179.566,179.566,,0,32,32,32,1,cvmt/test_items/t33.jpeg,n,,,,,,,,,,,,,,,,,,,,,,,,,,,,
,,108199,022,1,2024-03-12_14h01.37.066,Memory and Syntax,2023.2.3,MacIntel,111.1111111,,,,,179.567,181.567,o,1,0.701,,181.567,181.567,,0,181.567,181.567,,181.567,181.567,,0,33,33,33,1,cvmt/test_items/t34.jpeg,o,,,,,,,,,,,,,,,,,,,,,,,,,,,,
,,108199,022,1,2024-03-12_14h01.37.066,Memory and Syntax,2023.2.3,MacIntel,111.1111111,,,,,181.568,183.564,n,1,0.829,,183.564,183.564,,0,183.564,183.564,,183.564,183.564,,0,34,34,34,1,cvmt/test_items/t35.jpeg,n,,,,,,,,,,,,,,,,,,,,,,,,,,,,
,,108199,022,1,2024-03-12_14h01.37.066,Memory and Syntax,2023.2.3,MacIntel,111.1111111,,,,,183.564,185.565,o,1,0.712,,185.565,185.565,,0,185.565,185.565,,185.565,185.565,,0,35,35,35,1,cvmt/test_items/t36.jpeg,o,,,,,,,,,,,,,,,,,,,,,,,,,,,,
,,108199,022,1,2024-03-12_14h01.37.066,Memory and Syntax,2023.2.3,MacIntel,111.1111111,,,,,185.565,187.564,n,1,0.901,,187.564,187.564,,0,187.564,187.564,,187.564,187.564,,0,36,36,36,1,cvmt/test_items/t37.jpeg,n,,,,,,,,,,,,,,,,,,,,,,,,,,,,
,,108199,022,1,2024-03-12_14h01.37.066,Memory and Syntax,2023.2.3,MacIntel,111.1111111,,,,,187.565,189.566,o,1,0.872,,189.566,189.566,,0,189.566,189.566,,189.566,189.566,,0,37,37,37,1,cvmt/test_items/t38.jpeg,o,,,,,,,,,,,,,,,,,,,,,,,,,,,,
,,108199,022,1,2024-03-12_14h01.37.066,Memory and Syntax,2023.2.3,MacIntel,111.1111111,,,,,189.566,191.564,n,1,0.625,,191.564,191.564,,0,191.564,191.564,,191.564,191.564,,0,38,38,38,1,cvmt/test_items/t39.jpeg,n,,,,,,,,,,,,,,,,,,,,,,,,,,,,
,,108199,022,1,2024-03-12_14h01.37.066,Memory and Syntax,2023.2.3,MacIntel,111.1111111,,,,,191.564,193.567,o,1,1.036,,193.567,193.567,,0,193.567,193.568,,193.568,193.568,,0,39,39,39,1,cvmt/test_items/t40.jpeg,o,,,,,,,,,,,,,,,,,,,,,,,,,,,,
,,108199,022,1,2024-03-12_14h01.37.066,Memory and Syntax,2023.2.3,MacIntel,111.1111111,,,,,193.568,195.564,n,1,0.68,,195.564,195.564,,0,195.564,195.564,,195.564,195.564,,0,40,40,40,1,cvmt/test_items/t41.jpeg,n,,,,,,,,,,,,,,,,,,,,,,,,,,,,
,,108199,022,1,2024-03-12_14h01.37.066,Memory and Syntax,2023.2.3,MacIntel,111.1111111,,,,,195.565,197.564,o,1,0.737,,197.564,197.565,,0,197.565,197.565,,197.565,197.565,,0,41,41,41,1,cvmt/test_items/t42.jpeg,o,,,,,,,,,,,,,,,,,,,,,,,,,,,,
,,108199,022,1,2024-03-12_14h01.37.066,Memory and Syntax,2023.2.3,MacIntel,111.1111111,,,,,197.565,199.567,o,1,0.987,,199.567,199.567,,0,199.567,199.567,,199.567,199.567,,0,42,42,42,1,cvmt/test_items/t43.jpeg,o,,,,,,,,,,,,,,,,,,,,,,,,,,,,
,,108199,022,1,2024-03-12_14h01.37.066,Memory and Syntax,2023.2.3,MacIntel,111.1111111,,,,,199.567,201.566,n,1,0.578,,201.566,201.566,,0,201.566,201.566,,201.566,201.566,,0,43,43,43,1,cvmt/test_items/t44.jpeg,n,,,,,,,,,,,,,,,,,,,,,,,,,,,,
,,108199,022,1,2024-03-12_14h01.37.066,Memory and Syntax,2023.2.3,MacIntel,111.1111111,,,,,201.566,203.567,n,0,1.781,,203.567,203.567,,0,203.567,203.567,,203.567,203.567,,0,44,44,44,1,cvmt/test_items/t45.jpeg,o,,,,,,,,,,,,,,,,,,,,,,,,,,,,
,,108199,022,1,2024-03-12_14h01.37.066,Memory and Syntax,2023.2.3,MacIntel,111.1111111,,,,,203.567,205.57,o,1,0.608,,205.57,205.57,,0,205.57,205.571,,205.571,205.571,,0,45,45,45,1,cvmt/test_items/t46.jpeg,o,,,,,,,,,,,,,,,,,,,,,,,,,,,,
,,108199,022,1,2024-03-12_14h01.37.066,Memory and Syntax,2023.2.3,MacIntel,111.1111111,,,,,205.571,207.566,,0,,,207.566,207.649,o,1,207.649,207.65,,207.65,207.65,,0,46,46,46,1,cvmt/test_items/t47.jpeg,o,,,,,0.069,,,,,,,,,,,,,,,,,,,,,,,
,,108199,022,1,2024-03-12_14h01.37.066,Memory and Syntax,2023.2.3,MacIntel,111.1111111,,,,,207.65,209.648,n,1,1.605,,209.648,209.648,,0,209.648,209.649,,209.649,209.649,,0,47,47,47,1,cvmt/test_items/t48.jpeg,n,,,,,,,,,,,,,,,,,,,,,,,,,,,,
,,108199,022,1,2024-03-12_14h01.37.066,Memory and Syntax,2023.2.3,MacIntel,111.1111111,,,,,209.649,211.648,o,1,0.665,,211.648,211.648,,0,211.648,211.648,,211.648,211.648,,0,48,48,48,1,cvmt/test_items/t49.jpeg,o,,,,,,,,,,,,,,,,,,,,,,,,,,,,
,,108199,022,1,2024-03-12_14h01.37.066,Memory and Syntax,2023.2.3,MacIntel,111.1111111,,,,,211.648,213.649,n,0,1.284,,213.649,213.649,,0,213.649,213.65,,213.65,213.65,,0,49,49,49,1,cvmt/test_items/t50.jpeg,o,,,,,,,,,,,,,,,,,,,,,,,,,,,,
,,108199,022,1,2024-03-12_14h01.37.066,Memory and Syntax,2023.2.3,MacIntel,111.1111111,,,,,213.65,215.649,n,1,1.482,,215.649,215.649,,0,215.649,215.65,,215.65,215.65,,0,50,50,50,1,cvmt/test_items/t51.jpeg,n,,,,,,,,,,,,,,,,,,,,,,,,,,,,
,,108199,022,1,2024-03-12_14h01.37.066,Memory and Syntax,2023.2.3,MacIntel,111.1111111,,,,,215.65,217.647,o,1,0.815,,217.647,217.647,,0,217.647,217.647,,217.647,217.647,,0,51,51,51,1,cvmt/test_items/t52.jpeg,o,,,,,,,,,,,,,,,,,,,,,,,,,,,,
,,108199,022,1,2024-03-12_14h01.37.066,Memory and Syntax,2023.2.3,MacIntel,111.1111111,,,,,217.647,219.649,o,1,0.997,,219.649,219.649,,0,219.649,219.649,,219.649,219.649,,0,52,52,52,1,cvmt/test_items/t53.jpeg,o,,,,,,,,,,,,,,,,,,,,,,,,,,,,
,,108199,022,1,2024-03-12_14h01.37.066,Memory and Syntax,2023.2.3,MacIntel,111.1111111,,,,,219.649,221.649,o,1,0.998,,221.649,221.649,,0,221.649,221.65,,221.65,221.65,,0,53,53,53,1,cvmt/test_items/t54.jpeg,o,,,,,,,,,,,,,,,,,,,,,,,,,,,,
,,108199,022,1,2024-03-12_14h01.37.066,Memory and Syntax,2023.2.3,MacIntel,111.1111111,,,,,221.65,223.649,o,1,0.664,,223.649,223.649,,0,223.649,223.65,,223.65,223.65,,0,54,54,54,1,cvmt/test_items/t55.jpeg,o,,,,,,,,,,,,,,,,,,,,,,,,,,,,
,,108199,022,1,2024-03-12_14h01.37.066,Memory and Syntax,2023.2.3,MacIntel,111.1111111,,,,,223.65,225.649,n,0,0.765,,225.649,225.649,,0,225.649,225.649,,225.649,225.649,,0,55,55,55,1,cvmt/test_items/t56.jpeg,o,,,,,,,,,,,,,,,,,,,,,,,,,,,,
,,108199,022,1,2024-03-12_14h01.37.066,Memory and Syntax,2023.2.3,MacIntel,111.1111111,,,,,225.65,227.649,o,1,0.728,,227.649,227.649,,0,227.649,227.649,,227.649,227.649,,0,56,56,56,1,cvmt/test_items/t57.jpeg,o,,,,,,,,,,,,,,,,,,,,,,,,,,,,
,,108199,022,1,2024-03-12_14h01.37.066,Memory and Syntax,2023.2.3,MacIntel,111.1111111,,,,,227.65,229.647,n,1,0.679,,229.647,229.647,,0,229.647,229.647,,229.647,229.647,,0,57,57,57,1,cvmt/test_items/t58.jpeg,n,,,,,,,,,,,,,,,,,,,,,,,,,,,,
,,108199,022,1,2024-03-12_14h01.37.066,Memory and Syntax,2023.2.3,MacIntel,111.1111111,,,,,229.648,231.648,n,1,0.869,,231.648,231.649,,0,231.649,231.649,,231.649,231.649,,0,58,58,58,1,cvmt/test_items/t59.jpeg,n,,,,,,,,,,,,,,,,,,,,,,,,,,,,
,,108199,022,1,2024-03-12_14h01.37.066,Memory and Syntax,2023.2.3,MacIntel,111.1111111,,,,,231.649,233.646,o,1,0.623,,233.646,233.646,,0,233.646,233.646,,233.646,233.646,,0,59,59,59,1,cvmt/test_items/t60.jpeg,o,,,,,,,,,,,,,,,,,,,,,,,,,,,,
,,108199,022,1,2024-03-12_14h01.37.066,Memory and Syntax,2023.2.3,MacIntel,111.1111111,,,,,233.646,235.645,n,0,1.126,,235.645,235.646,,0,235.646,235.646,,235.646,235.646,,0,60,60,60,1,cvmt/test_items/t61.jpeg,o,,,,,,,,,,,,,,,,,,,,,,,,,,,,
,,108199,022,1,2024-03-12_14h01.37.066,Memory and Syntax,2023.2.3,MacIntel,111.1111111,,,,,235.646,237.641,o,1,0.869,,237.641,237.641,,0,237.641,237.641,,237.641,237.641,,0,61,61,61,1,cvmt/test_items/t62.jpeg,o,,,,,,,,,,,,,,,,,,,,,,,,,,,,
,,108199,022,1,2024-03-12_14h01.37.066,Memory and Syntax,2023.2.3,MacIntel,111.1111111,,,,,237.642,239.63,n,0,1.189,,239.63,239.63,,0,239.63,239.63,,239.63,239.63,,0,62,62,62,1,cvmt/test_items/t63.jpeg,o,,,,,,,,,,,,,,,,,,,,,,,,,,,,
,,108199,022,1,2024-03-12_14h01.37.066,Memory and Syntax,2023.2.3,MacIntel,111.1111111,,,,,239.631,241.632,n,0,0.973,,241.632,241.633,,0,241.633,241.633,,241.633,241.633,,0,63,63,63,1,cvmt/test_items/t64.jpeg,o,,,,,,,,,,,,,,,,,,,,,,,,,,,,
,,108199,022,1,2024-03-12_14h01.37.066,Memory and Syntax,2023.2.3,MacIntel,111.1111111,,,,,241.633,243.632,o,1,0.761,,243.632,243.632,,0,243.632,243.632,,243.632,243.633,,0,64,64,64,1,cvmt/test_items/t65.jpeg,o,,,,,,,,,,,,,,,,,,,,,,,,,,,,
,,108199,022,1,2024-03-12_14h01.37.066,Memory and Syntax,2023.2.3,MacIntel,111.1111111,,,,,243.633,245.632,o,1,0.865,,245.632,245.632,,0,245.632,245.632,,245.632,245.632,,0,65,65,65,1,cvmt/test_items/t66.jpeg,o,,,,,,,,,,,,,,,,,,,,,,,,,,,,
,,108199,022,1,2024-03-12_14h01.37.066,Memory and Syntax,2023.2.3,MacIntel,111.1111111,,,,,245.632,247.632,n,1,0.812,,247.632,247.632,,0,247.632,247.632,,247.632,247.632,,0,66,66,66,1,cvmt/test_items/t67.jpeg,n,,,,,,,,,,,,,,,,,,,,,,,,,,,,
,,108199,022,1,2024-03-12_14h01.37.066,Memory and Syntax,2023.2.3,MacIntel,111.1111111,,,,,247.632,249.63,n,0,0.733,,249.63,249.63,,0,249.63,249.63,,249.63,249.63,,0,67,67,67,1,cvmt/test_items/t68.jpeg,o,,,,,,,,,,,,,,,,,,,,,,,,,,,,
,,108199,022,1,2024-03-12_14h01.37.066,Memory and Syntax,2023.2.3,MacIntel,111.1111111,,,,,249.63,251.632,n,0,0.673,,251.632,251.632,,0,251.632,251.633,,251.633,251.633,,0,68,68,68,1,cvmt/test_items/t69.jpeg,o,,,,,,,,,,,,,,,,,,,,,,,,,,,,
,,108199,022,1,2024-03-12_14h01.37.066,Memory and Syntax,2023.2.3,MacIntel,111.1111111,,,,,251.633,253.632,o,1,1.243,,253.632,253.632,,0,253.632,253.632,,253.632,253.632,,0,69,69,69,1,cvmt/test_items/t70.jpeg,o,,,,,,,,,,,,,,,,,,,,,,,,,,,,
,,108199,022,1,2024-03-12_14h01.37.066,Memory and Syntax,2023.2.3,MacIntel,111.1111111,,,,,253.632,255.635,o,0,0.814,,255.635,255.636,,0,255.636,255.636,,255.636,255.636,,0,70,70,70,1,cvmt/test_items/t71.jpeg,n,,,,,,,,,,,,,,,,,,,,,,,,,,,,
,,108199,022,1,2024-03-12_14h01.37.066,Memory and Syntax,2023.2.3,MacIntel,111.1111111,,,,,255.636,257.628,o,1,1.148,,257.628,257.628,,0,257.628,257.628,,257.628,257.628,,0,71,71,71,1,cvmt/test_items/t72.jpeg,o,,,,,,,,,,,,,,,,,,,,,,,,,,,,
,,108199,022,1,2024-03-12_14h01.37.066,Memory and Syntax,2023.2.3,MacIntel,111.1111111,,,,,257.628,259.617,o,1,0.625,,259.617,259.617,,0,259.617,259.617,,259.617,259.618,,0,72,72,72,1,cvmt/test_items/t73.jpeg,o,,,,,,,,,,,,,,,,,,,,,,,,,,,,
,,108199,022,1,2024-03-12_14h01.37.066,Memory and Syntax,2023.2.3,MacIntel,111.1111111,,,,,259.618,261.616,n,0,0.812,,261.617,261.617,,0,261.617,261.617,,261.617,261.617,,0,73,73,73,1,cvmt/test_items/t74.jpeg,o,,,,,,,,,,,,,,,,,,,,,,,,,,,,
,,108199,022,1,2024-03-12_14h01.37.066,Memory and Syntax,2023.2.3,MacIntel,111.1111111,,,,,261.618,263.616,o,1,1.377,,263.616,263.616,,0,263.616,263.617,,263.617,263.617,,0,74,74,74,1,cvmt/test_items/t75.jpeg,o,,,,,,,,,,,,,,,,,,,,,,,,,,,,
,,108199,022,1,2024-03-12_14h01.37.066,Memory and Syntax,2023.2.3,MacIntel,111.1111111,,,,,263.617,265.614,o,1,1.531,,265.614,265.614,,0,265.614,265.614,,265.614,265.614,,0,75,75,75,1,cvmt/test_items/t76.jpeg,o,,,,,,,,,,,,,,,,,,,,,,,,,,,,
,,108199,022,1,2024-03-12_14h01.37.066,Memory and Syntax,2023.2.3,MacIntel,111.1111111,,,,,265.614,267.614,n,0,0.831,,267.614,267.614,,0,267.614,267.614,,267.614,267.614,,0,76,76,76,1,cvmt/test_items/t77.jpeg,o,,,,,,,,,,,,,,,,,,,,,,,,,,,,
,,108199,022,1,2024-03-12_14h01.37.066,Memory and Syntax,2023.2.3,MacIntel,111.1111111,,,,,267.614,269.616,o,1,0.762,,269.616,269.616,,0,269.616,269.616,,269.616,269.616,,0,77,77,77,1,cvmt/test_items/t78.jpeg,o,,,,,,,,,,,,,,,,,,,,,,,,,,,,
,,108199,022,1,2024-03-12_14h01.37.066,Memory and Syntax,2023.2.3,MacIntel,111.1111111,,,,,269.616,271.613,n,0,0.983,,271.613,271.613,,0,271.613,271.614,,271.614,271.614,,0,78,78,78,1,cvmt/test_items/t79.jpeg,o,,,,,,,,,,,,,,,,,,,,,,,,,,,,
,,108199,022,1,2024-03-12_14h01.37.066,Memory and Syntax,2023.2.3,MacIntel,111.1111111,,,,,271.614,273.615,n,1,1.169,,273.615,273.615,,0,273.615,273.616,,273.616,273.616,,0,79,79,79,1,cvmt/test_items/t80.jpeg,n,,,,,,,,,,,,,,,,,,,,,,,,,,,,
,,108199,022,1,2024-03-12_14h01.37.066,Memory and Syntax,2023.2.3,MacIntel,111.1111111,,,,,273.616,275.613,o,1,1.107,,275.613,275.613,,0,275.613,275.614,,275.614,275.614,,0,80,80,80,1,cvmt/test_items/t81.jpeg,o,,,,,,,,,,,,,,,,,,,,,,,,,,,,
,,108199,022,1,2024-03-12_14h01.37.066,Memory and Syntax,2023.2.3,MacIntel,111.1111111,,,,,275.614,277.617,o,1,0.597,,277.617,277.617,,0,277.617,277.617,,277.617,277.617,,0,81,81,81,1,cvmt/test_items/t82.jpeg,o,,,,,,,,,,,,,,,,,,,,,,,,,,,,
,,108199,022,1,2024-03-12_14h01.37.066,Memory and Syntax,2023.2.3,MacIntel,111.1111111,,,,,277.617,279.613,o,1,1.094,,279.613,279.613,,0,279.613,279.614,,279.614,279.614,,0,82,82,82,1,cvmt/test_items/t83.jpeg,o,,,,,,,,,,,,,,,,,,,,,,,,,,,,
,,108199,022,1,2024-03-12_14h01.37.066,Memory and Syntax,2023.2.3,MacIntel,111.1111111,,,,,279.614,281.613,o,1,0.926,,281.613,281.613,,0,281.613,281.614,,281.614,281.614,,0,83,83,83,1,cvmt/test_items/t84.jpeg,o,,,,,,,,,,,,,,,,,,,,,,,,,,,,
,,108199,022,1,2024-03-12_14h01.37.066,Memory and Syntax,2023.2.3,MacIntel,111.1111111,,,,,281.614,283.614,n,0,0.765,,283.614,283.614,,0,283.614,283.614,,283.614,283.614,,0,84,84,84,1,cvmt/test_items/t85.jpeg,o,,,,,,,,,,,,,,,,,,,,,,,,,,,,
,,108199,022,1,2024-03-12_14h01.37.066,Memory and Syntax,2023.2.3,MacIntel,111.1111111,,,,,283.615,285.615,o,1,0.691,,285.615,285.615,,0,285.615,285.616,,285.616,285.616,,0,85,85,85,1,cvmt/test_items/t86.jpeg,o,,,,,,,,,,,,,,,,,,,,,,,,,,,,
,,108199,022,1,2024-03-12_14h01.37.066,Memory and Syntax,2023.2.3,MacIntel,111.1111111,,,,,285.616,287.609,n,0,1.079,,287.609,287.609,,0,287.609,287.61,,287.61,287.61,,0,86,86,86,1,cvmt/test_items/t87.jpeg,o,,,,,,,,,,,,,,,,,,,,,,,,,,,,
,,108199,022,1,2024-03-12_14h01.37.066,Memory and Syntax,2023.2.3,MacIntel,111.1111111,,,,,287.61,289.604,n,1,0.623,,289.604,289.604,,0,289.604,289.605,,289.605,289.605,,0,87,87,87,1,cvmt/test_items/t88.jpeg,n,,,,,,,,,,,,,,,,,,,,,,,,,,,,
,,108199,022,1,2024-03-12_14h01.37.066,Memory and Syntax,2023.2.3,MacIntel,111.1111111,,,,,289.605,291.598,o,0,0.66,,291.598,291.598,,0,291.598,291.599,,291.599,291.599,,0,88,88,88,1,cvmt/test_items/t89.jpeg,n,,,,,,,,,,,,,,,,,,,,,,,,,,,,
,,108199,022,1,2024-03-12_14h01.37.066,Memory and Syntax,2023.2.3,MacIntel,111.1111111,,,,,291.599,293.597,o,1,0.664,,293.597,293.597,,0,293.597,293.597,,293.597,293.597,,0,89,89,89,1,cvmt/test_items/t90.jpeg,o,,,,,,,,,,,,,,,,,,,,,,,,,,,,
,,108199,022,1,2024-03-12_14h01.37.066,Memory and Syntax,2023.2.3,MacIntel,111.1111111,,,,,293.597,295.597,n,0,1.032,,295.597,295.597,,0,295.597,295.597,,295.597,295.597,,0,90,90,90,1,cvmt/test_items/t91.jpeg,o,,,,,,,,,,,,,,,,,,,,,,,,,,,,
,,108199,022,1,2024-03-12_14h01.37.066,Memory and Syntax,2023.2.3,MacIntel,111.1111111,,,,,295.597,297.597,n,0,1.193,,297.597,297.597,,0,297.597,297.597,,297.597,297.597,,0,91,91,91,1,cvmt/test_items/t92.jpeg,o,,,,,,,,,,,,,,,,,,,,,,,,,,,,
,,108199,022,1,2024-03-12_14h01.37.066,Memory and Syntax,2023.2.3,MacIntel,111.1111111,,,,,297.597,299.598,o,1,0.657,,299.598,299.598,,0,299.598,299.599,,299.599,299.599,,0,92,92,92,1,cvmt/test_items/t93.jpeg,o,,,,,,,,,,,,,,,,,,,,,,,,,,,,
,,108199,022,1,2024-03-12_14h01.37.066,Memory and Syntax,2023.2.3,MacIntel,111.1111111,,,,,299.599,301.598,n,0,0.719,,301.598,301.598,,0,301.598,301.598,,301.598,301.599,,0,93,93,93,1,cvmt/test_items/t94.jpeg,o,,,,,,,,,,,,,,,,,,,,,,,,,,,,
,,108199,022,1,2024-03-12_14h01.37.066,Memory and Syntax,2023.2.3,MacIntel,111.1111111,,,,,301.599,303.597,o,1,1.728,,303.597,303.597,,0,303.597,303.597,,303.597,303.597,,0,94,94,94,1,cvmt/test_items/t95.jpeg,o,,,,,,,,,,,,,,,,,,,,,,,,,,,,
,,108199,022,1,2024-03-12_14h01.37.066,Memory and Syntax,2023.2.3,MacIntel,111.1111111,,,,,303.597,305.596,o,1,1.365,,305.596,305.596,,0,305.597,305.597,,305.597,305.597,,0,95,95,95,1,cvmt/test_items/t96.jpeg,o,,,,,,,,,,,,,,,,,,,,,,,,,,,,
,,108199,022,1,2024-03-12_14h01.37.066,Memory and Syntax,2023.2.3,MacIntel,111.1111111,,,,,305.597,307.603,o,1,0.918,,307.603,307.603,,0,307.603,307.603,,307.603,307.603,,0,96,96,96,1,cvmt/test_items/t97.jpeg,o,,,,,,,,,,,,,,,,,,,,,,,,,,,,
,,108199,022,1,2024-03-12_14h01.37.066,Memory and Syntax,2023.2.3,MacIntel,111.1111111,,,,,307.603,309.596,n,1,0.954,,309.596,309.596,,0,309.596,309.597,,309.597,309.597,,0,97,97,97,1,cvmt/test_items/t98.jpeg,n,,,,,,,,,,,,,,,,,,,,,,,,,,,,
,,108199,022,1,2024-03-12_14h01.37.066,Memory and Syntax,2023.2.3,MacIntel,111.1111111,,,,,309.597,311.596,n,0,1.848,,311.596,311.596,,0,311.596,311.597,,311.597,311.597,,0,98,98,98,1,cvmt/test_items/t99.jpeg,o,,,,,,,,,,,,,,,,,,,,,,,,,,,,
,,108199,022,1,2024-03-12_14h01.37.066,Memory and Syntax,2023.2.3,MacIntel,111.1111111,,,,,311.597,313.596,o,1,0.715,,313.596,313.596,,0,313.596,313.597,,313.597,313.597,,0,99,99,99,1,cvmt/test_items/t100.jpeg,o,,,,,,,,,,,,,,,,,,,,,,,,,,,,
,,108199,022,1,2024-03-12_14h01.37.066,Memory and Syntax,2023.2.3,MacIntel,111.1111111,,,,,313.597,315.598,o,1,1.27,,315.598,315.598,,0,315.598,315.599,,315.599,315.599,,0,100,100,100,1,cvmt/test_items/t101.jpeg,o,,,,,,,,,,,,,,,,,,,,,,,,,,,,
,,108199,022,1,2024-03-12_14h01.37.066,Memory and Syntax,2023.2.3,MacIntel,111.1111111,,,,,315.599,317.599,o,1,0.683,,317.599,317.599,,0,317.599,317.6,,317.6,317.6,,0,101,101,101,1,cvmt/test_items/t102.jpeg,o,,,,,,,,,,,,,,,,,,,,,,,,,,,,
,,108199,022,1,2024-03-12_14h01.37.066,Memory and Syntax,2023.2.3,MacIntel,111.1111111,,,,,317.6,319.598,n,0,1.397,,319.598,319.598,,0,319.598,319.598,,319.598,319.598,,0,102,102,102,1,cvmt/test_items/t103.jpeg,o,,,,,,,,,,,,,,,,,,,,,,,,,,,,
,,108199,022,1,2024-03-12_14h01.37.066,Memory and Syntax,2023.2.3,MacIntel,111.1111111,,,,,319.598,321.596,o,1,0.683,,321.596,321.596,,0,321.596,321.596,,321.596,321.596,,0,103,103,103,1,cvmt/test_items/t104.jpeg,o,,,,,,,,,,,,,,,,,,,,,,,,,,,,
,,108199,022,1,2024-03-12_14h01.37.066,Memory and Syntax,2023.2.3,MacIntel,111.1111111,,,,,321.597,323.599,n,1,1.008,,323.599,323.599,,0,323.599,323.6,,323.6,323.6,,0,104,104,104,1,cvmt/test_items/t105.jpeg,n,,,,,,,,,,,,,,,,,,,,,,,,,,,,
,,108199,022,1,2024-03-12_14h01.37.066,Memory and Syntax,2023.2.3,MacIntel,111.1111111,,,,,323.6,325.598,o,1,0.662,,325.598,325.598,,0,325.598,325.598,,325.598,325.599,,0,105,105,105,1,cvmt/test_items/t106.jpeg,o,,,,,,,,,,,,,,,,,,,,,,,,,,,,
,,108199,022,1,2024-03-12_14h01.37.066,Memory and Syntax,2023.2.3,MacIntel,111.1111111,,,,,325.599,327.598,o,1,0.648,,327.598,327.598,,0,327.598,327.599,,327.599,327.599,,0,106,106,106,1,cvmt/test_items/t107.jpeg,o,,,,,,,,,,,,,,,,,,,,,,,,,,,,
,,108199,022,1,2024-03-12_14h01.37.066,Memory and Syntax,2023.2.3,MacIntel,111.1111111,,,,,327.599,329.598,n,0,0.814,,329.598,329.598,,0,329.598,329.598,,329.598,329.598,,0,107,107,107,1,cvmt/test_items/t108.jpeg,o,,,,,,,,,,,,,,,,,,,,,,,,,,,,
,,108199,022,1,2024-03-12_14h01.37.066,Memory and Syntax,2023.2.3,MacIntel,111.1111111,,,,,329.598,331.598,n,0,0.932,,331.598,331.598,,0,331.598,331.598,,331.598,331.598,,0,108,108,108,1,cvmt/test_items/t109.jpeg,o,,,,,,,,,,,,,,,,,,,,,,,,,,,,
,,108199,022,1,2024-03-12_14h01.37.066,Memory and Syntax,2023.2.3,MacIntel,111.1111111,,,,,331.598,333.598,n,0,0.899,,333.598,333.598,,0,333.598,333.598,,333.598,333.598,,0,109,109,109,1,cvmt/test_items/t110.jpeg,o,,,,,,,,,,,,,,,,,,,,,,,,,,,,
,,108199,022,1,2024-03-12_14h01.37.066,Memory and Syntax,2023.2.3,MacIntel,111.1111111,,,,,333.598,335.597,o,1,0.712,,335.597,335.597,,0,335.597,335.597,,335.597,335.598,,0,110,110,110,1,cvmt/test_items/t111.jpeg,o,,,,,,,,,,,,,,,,,,,,,,,,,,,,
,,108199,022,1,2024-03-12_14h01.37.066,Memory and Syntax,2023.2.3,MacIntel,111.1111111,,,,,335.598,337.597,n,0,1.316,,337.597,337.598,,0,337.598,337.598,,337.598,337.598,,0,111,111,111,1,cvmt/test_items/t112.jpeg,o,,,,,,,,,,,,,,,,,,,,,,,,,,,,
,,108199,022,1,2024-03-12_14h01.37.066,Memory and Syntax,2023.2.3,MacIntel,111.1111111,,,,,337.598,339.597,o,0,0.872,,339.597,339.597,,0,339.597,339.597,,339.597,339.597,,0,112,112,112,1,cvmt/test_items/t113.jpeg,n,,,,,,,,,,,,,,,,,,,,,,,,,,,,
,,108199,022,1,2024-03-12_14h01.37.066,Memory and Syntax,2023.2.3,MacIntel,111.1111111,,,,,339.597,341.6,n,0,0.945,,341.6,341.6,,0,341.601,341.601,,341.601,341.601,,0,113,113,113,1,cvmt/test_items/t114.jpeg,o,,,,,,,,,,,,,,,,,,,,,,,,,,,,
,,108199,022,1,2024-03-12_14h01.37.066,Memory and Syntax,2023.2.3,MacIntel,111.1111111,,,,,341.601,343.597,o,1,0.623,,343.597,343.598,,0,343.598,343.598,,343.598,343.599,,0,114,114,114,1,cvmt/test_items/t115.jpeg,o,,,,,,,,,,,,,,,,,,,,,,,,,,,,
,,108199,022,1,2024-03-12_14h01.37.066,Memory and Syntax,2023.2.3,MacIntel,111.1111111,,,,,343.599,345.598,n,0,1.374,,345.598,345.598,,0,345.599,345.599,,345.599,345.599,,0,115,115,115,1,cvmt/test_items/t116.jpeg,o,,,,,,,,,,,,,,,,,,,,,,,,,,,,
,,108199,022,1,2024-03-12_14h01.37.066,Memory and Syntax,2023.2.3,MacIntel,111.1111111,,,,,345.6,347.597,o,1,1.427,,347.597,347.598,,0,347.598,347.598,,347.598,347.598,,0,116,116,116,1,cvmt/test_items/t117.jpeg,o,,,,,,,,,,,,,,,,,,,,,,,,,,,,
,,108199,022,1,2024-03-12_14h01.37.066,Memory and Syntax,2023.2.3,MacIntel,111.1111111,,,,,347.598,349.597,n,0,1.442,,349.597,349.597,,0,349.597,349.597,,349.597,349.597,,0,117,117,117,1,cvmt/test_items/t118.jpeg,o,,,,,,,,,,,,,,,,,,,,,,,,,,,,
,,108199,022,1,2024-03-12_14h01.37.066,Memory and Syntax,2023.2.3,MacIntel,111.1111111,,,,,349.598,351.597,o,1,1.218,,351.597,351.597,,0,351.597,351.598,,351.598,351.598,,0,118,118,118,1,cvmt/test_items/t119.jpeg,o,,,,,,,,,,,,,,,,,,,,,,,,,,,,
,,108199,022,1,2024-03-12_14h01.37.066,Memory and Syntax,2023.2.3,MacIntel,111.1111111,,,,,351.598,353.597,o,1,0.647,,353.597,353.597,,0,353.597,353.598,,353.598,353.598,,0,119,119,119,1,cvmt/test_items/t120.jpeg,o,,,,,,,,,,,,,,,,,,,,,,,,,,,,
,,108199,022,1,2024-03-12_14h01.37.066,Memory and Syntax,2023.2.3,MacIntel,111.1111111,,,,,353.598,355.597,n,0,1.259,,355.597,355.597,,0,355.597,355.597,,355.597,355.597,,0,120,120,120,1,cvmt/test_items/t121.jpeg,o,,,,,,,,,,,,,,,,,,,,,,,,,,,,
,,108199,022,1,2024-03-12_14h01.37.066,Memory and Syntax,2023.2.3,MacIntel,111.1111111,,,,,355.598,357.598,o,1,0.626,,357.598,357.598,,0,357.598,357.598,,357.598,357.598,,0,121,121,121,1,cvmt/test_items/t122.jpeg,o,,,,,,,,,,,,,,,,,,,,,,,,,,,,
,,108199,022,1,2024-03-12_14h01.37.066,Memory and Syntax,2023.2.3,MacIntel,111.1111111,,,,,357.598,359.597,n,1,1.409,,359.597,359.597,,0,359.597,359.597,,359.597,359.597,,0,122,122,122,1,cvmt/test_items/t123.jpeg,n,,,,,,,,,,,,,,,,,,,,,,,,,,,,
,,108199,022,1,2024-03-12_14h01.37.066,Memory and Syntax,2023.2.3,MacIntel,111.1111111,,,,,359.597,361.597,n,0,0.682,,361.597,361.597,,0,361.597,361.598,,361.598,361.598,,0,123,123,123,1,cvmt/test_items/t124.jpeg,o,,,,,,,,,,,,,,,,,,,,,,,,,,,,
,,108199,022,1,2024-03-12_14h01.37.066,Memory and Syntax,2023.2.3,MacIntel,111.1111111,,,,,361.598,363.599,o,1,0.646,,363.599,363.599,,0,363.599,363.599,,363.599,363.599,,0,124,124,124,1,cvmt/test_items/t125.jpeg,o,,,,,,,,,,,,,,,,,,,,,,,,,,,,
,,108199,022,1,2024-03-12_14h01.37.066,Memory and Syntax,2023.2.3,MacIntel,111.1111111,,,,,363.599,365.597,o,1,1.345,,365.597,365.597,,0,365.597,365.597,,365.597,365.597,,0,125,125,125,1,cvmt/test_items/t126.jpeg,o,,,,,,,,,,,,,,,,,,,,,,,,,,,,
,,108199,022,1,2024-03-12_14h01.37.066,Memory and Syntax,2023.2.3,MacIntel,111.1111111,,,,,365.597,367.596,o,1,1.373,,367.596,367.596,,0,367.596,367.596,,367.596,367.596,,0,126,126,126,1,cvmt/test_items/t127.jpeg,o,,,,,,,,,,,,,,,,,,,,,,,,,,,,
,,108199,022,1,2024-03-12_14h01.37.066,Memory and Syntax,2023.2.3,MacIntel,111.1111111,,,,,367.596,369.593,o,1,1.229,,369.593,369.593,,0,369.593,369.593,,369.593,369.593,,0,127,127,127,1,cvmt/test_items/t128.jpeg,o,,,,,,,,,,,,,,,,,,,,,,,,,,,,
,,108199,022,1,2024-03-12_14h01.37.066,Memory and Syntax,2023.2.3,MacIntel,111.1111111,,,,,369.593,371.581,o,1,0.903,,371.581,371.581,,0,371.581,371.581,,371.581,371.581,,0,128,128,128,1,cvmt/test_items/t129.jpeg,o,,,,,,,,,,,,,,,,,,,,,,,,,,,,
,,108199,022,1,2024-03-12_14h01.37.066,Memory and Syntax,2023.2.3,MacIntel,111.1111111,,,,,371.582,373.58,o,1,0.656,,373.58,373.58,,0,373.58,373.581,,373.581,373.581,,0,129,129,129,1,cvmt/test_items/t130.jpeg,o,,,,,,,,,,,,,,,,,,,,,,,,,,,,
,,108199,022,1,2024-03-12_14h01.37.066,Memory and Syntax,2023.2.3,MacIntel,111.1111111,,,,,373.581,375.578,n,1,0.66,,375.578,375.578,,0,375.578,375.579,,375.579,375.579,,0,130,130,130,1,cvmt/test_items/t131.jpeg,n,,,,,,,,,,,,,,,,,,,,,,,,,,,,
,,108199,022,1,2024-03-12_14h01.37.066,Memory and Syntax,2023.2.3,MacIntel,111.1111111,,,,,375.579,377.579,n,0,1.116,,377.579,377.579,,0,377.579,377.579,,377.579,377.579,,0,131,131,131,1,cvmt/test_items/t132.jpeg,o,,,,,,,,,,,,,,,,,,,,,,,,,,,,
,,108199,022,1,2024-03-12_14h01.37.066,Memory and Syntax,2023.2.3,MacIntel,111.1111111,,,,,377.579,379.58,o,1,0.592,,379.58,379.58,,0,379.58,379.58,,379.58,379.58,,0,132,132,132,1,cvmt/test_items/t133.jpeg,o,,,,,,,,,,,,,,,,,,,,,,,,,,,,
,,108199,022,1,2024-03-12_14h01.37.066,Memory and Syntax,2023.2.3,MacIntel,111.1111111,,,,,379.581,381.58,o,1,0.63,,381.58,381.581,,0,381.581,381.581,,381.581,381.581,,0,133,133,133,1,cvmt/test_items/t134.jpeg,o,,,,,,,,,,,,,,,,,,,,,,,,,,,,
,,108199,022,1,2024-03-12_14h01.37.066,Memory and Syntax,2023.2.3,MacIntel,111.1111111,,,,,381.581,383.578,n,0,1.283,,383.578,383.578,,0,383.578,383.578,,383.578,383.578,,0,134,134,134,1,cvmt/test_items/t135.jpeg,o,,,,,,,,,,,,,,,,,,,,,,,,,,,,
,,108199,022,1,2024-03-12_14h01.37.066,Memory and Syntax,2023.2.3,MacIntel,111.1111111,,,,,,,,,,,,,,,,,,,,,,,,,,,,,,,,,,383.582,383.582,0,383.593,403.166,space,18.868,,403.176,408.347,7,5.17,0,0,0,0,1,2,1,filler,18A,"Jason drove his car, and Tara rode her bike."
,,108199,022,1,2024-03-12_14h01.37.066,Memory and Syntax,2023.2.3,MacIntel,111.1111111,,,,,,,,,,,,,,,,,,,,,,,,,,,,,,,,,,,,,,,,,,408.347,412.83,7,4.48,0,1,1,1,1,2,2,WO,15A,You watered the tiny cactus.
,,108199,022,1,2024-03-12_14h01.37.066,Memory and Syntax,2023.2.3,MacIntel,111.1111111,,,,,,,,,,,,,,,,,,,,,,,,,,,,,,,,,,,,,,,,,,412.83,417.98,6.9,5.148,0,2,2,2,1,2,3,control,19B,The flowers plant seasonally to attract hummingbirds.
,,108199,022,1,2024-03-12_14h01.37.066,Memory and Syntax,2023.2.3,MacIntel,111.1111111,,,,,,,,,,,,,,,,,,,,,,,,,,,,,,,,,,,,,,,,,,417.98,423.83,2.5,5.848,0,3,3,3,1,2,4,WOV,20B,Created Fatima a minimalistic website.
,,108199,022,1,2024-03-12_14h01.37.066,Memory and Syntax,2023.2.3,MacIntel,111.1111111,,,,,,,,,,,,,,,,,,,,,,,,,,,,,,,,,,,,,,,,,,423.831,428.628,5.6,4.795,0,4,4,4,1,2,5,WO,14A,Many people attended the book release.
,,108199,022,1,2024-03-12_14h01.37.066,Memory and Syntax,2023.2.3,MacIntel,111.1111111,,,,,,,,,,,,,,,,,,,,,,,,,,,,,,,,,,,,,,,,,,428.628,432.847,1,4.218,0,5,5,5,1,2,6,control,22B,Anywhere has nobody gone.
,,108199,022,1,2024-03-12_14h01.37.066,Memory and Syntax,2023.2.3,MacIntel,111.1111111,,,,,,,,,,,,,,,,,,,,,,,,,,,,,,,,,,,,,,,,,,432.847,437.779,5.4,4.93,0,6,6,6,1,2,7,filler,17A,A dog bigger than my corgi snarled.
,,108199,022,1,2024-03-12_14h01.37.066,Memory and Syntax,2023.2.3,MacIntel,111.1111111,,,,,,,,,,,,,,,,,,,,,,,,,,,,,,,,,,,,,,,,,,437.779,443.063,3.5,5.282,0,7,7,7,1,2,8,filler,15A,There are leaves burnt.
,,108199,022,1,2024-03-12_14h01.37.066,Memory and Syntax,2023.2.3,MacIntel,111.1111111,,,,,,,,,,,,,,,,,,,,,,,,,,,,,,,,,,,,,,,,,,443.063,447.011,1.1,3.94,0,8,8,8,1,2,9,WOV,22B,Enjoyed we the sunset on the beach.
,,108199,022,1,2024-03-12_14h01.37.066,Memory and Syntax,2023.2.3,MacIntel,111.1111111,,,,,,,,,,,,,,,,,,,,,,,,,,,,,,,,,,,,,,,,,,447.011,450.997,6.3,3.985,0,9,9,9,1,2,10,ASV,22B,Haru hid herself from the manager's wrath.
,,108199,022,1,2024-03-12_14h01.37.066,Memory and Syntax,2023.2.3,MacIntel,111.1111111,,,,,,,,,,,,,,,,,,,,,,,,,,,,,,,,,,,,,,,,,,450.997,454.129,6.7,3.13,0,10,10,10,1,2,11,WO,18A,The cat pushed the dog off the couch.
,,108199,022,1,2024-03-12_14h01.37.066,Memory and Syntax,2023.2.3,MacIntel,111.1111111,,,,,,,,,,,,,,,,,,,,,,,,,,,,,,,,,,,,,,,,,,454.129,457.146,6.9,3.015,0,11,11,11,1,2,12,WO,13A,Janelle painted the fence.
,,108199,022,1,2024-03-12_14h01.37.066,Memory and Syntax,2023.2.3,MacIntel,111.1111111,,,,,,,,,,,,,,,,,,,,,,,,,,,,,,,,,,,,,,,,,,457.146,460.048,6.6,2.9,0,12,12,12,1,2,13,filler,13A,Carla appears to have graduated high school.
,,108199,022,1,2024-03-12_14h01.37.066,Memory and Syntax,2023.2.3,MacIntel,111.1111111,,,,,,,,,,,,,,,,,,,,,,,,,,,,,,,,,,,,,,,,,,460.048,463.362,6.7,3.312,0,13,13,13,1,2,14,AS,17A,He cried tears of joy at the heartwarming reunion.
,,108199,022,1,2024-03-12_14h01.37.066,Memory and Syntax,2023.2.3,MacIntel,111.1111111,,,,,,,,,,,,,,,,,,,,,,,,,,,,,,,,,,,,,,,,,,463.362,468.546,5.2,5.182,0,14,14,14,1,2,15,WO,16A,Armadillos dug several holes.
,,108199,022,1,2024-03-12_14h01.37.066,Memory and Syntax,2023.2.3,MacIntel,111.1111111,,,,,,,,,,,,,,,,,,,,,,,,,,,,,,,,,,,,,,,,,,468.546,473.662,3.1,5.114,0,15,15,15,1,2,16,ASV,24B,She ascended herself the ladder.
,,108199,022,1,2024-03-12_14h01.37.066,Memory and Syntax,2023.2.3,MacIntel,111.1111111,,,,,,,,,,,,,,,,,,,,,,,,,,,,,,,,,,,,,,,,,,473.662,476.628,1.4,2.964,0,16,16,16,1,2,17,WOV,24B,Forgot she her keys at home.
,,108199,022,1,2024-03-12_14h01.37.066,Memory and Syntax,2023.2.3,MacIntel,111.1111111,,,,,,,,,,,,,,,,,,,,,,,,,,,,,,,,,,,,,,,,,,476.628,480.912,2.4,4.283,0,17,17,17,1,2,18,ASV,23B,She loved herself the market a lot.
,,108199,022,1,2024-03-12_14h01.37.066,Memory and Syntax,2023.2.3,MacIntel,111.1111111,,,,,,,,,,,,,,,,,,,,,,,,,,,,,,,,,,,,,,,,,,480.913,485.178,2.4,4.261,0,18,18,18,1,2,19,control,24B,The government gives any help to no poor people.
,,108199,022,1,2024-03-12_14h01.37.066,Memory and Syntax,2023.2.3,MacIntel,111.1111111,,,,,,,,,,,,,,,,,,,,,,,,,,,,,,,,,,,,,,,,,,485.179,488.644,2.8,3.464,0,19,19,19,1,2,20,ASV,20B,They laughed themselves at the joke.
,,108199,022,1,2024-03-12_14h01.37.066,Memory and Syntax,2023.2.3,MacIntel,111.1111111,,,,,,,,,,,,,,,,,,,,,,,,,,,,,,,,,,,,,,,,,,488.644,492.629,1.6,3.984,0,20,20,20,1,2,21,WOV,23B,Kissed Nova their child's forehead.
,,108199,022,1,2024-03-12_14h01.37.066,Memory and Syntax,2023.2.3,MacIntel,111.1111111,,,,,,,,,,,,,,,,,,,,,,,,,,,,,,,,,,,,,,,,,,492.629,496.295,5.8,3.665,0,21,21,21,1,2,22,filler,14A,Angelica and Alberto hate each other.
,,108199,022,1,2024-03-12_14h01.37.066,Memory and Syntax,2023.2.3,MacIntel,111.1111111,,,,,,,,,,,,,,,,,,,,,,,,,,,,,,,,,,,,,,,,,,496.295,500.012,2.3,3.716,0,22,22,22,1,2,23,control,23B,I seem eating sushi.
,,108199,022,1,2024-03-12_14h01.37.066,Memory and Syntax,2023.2.3,MacIntel,111.1111111,,,,,,,,,,,,,,,,,,,,,,,,,,,,,,,,,,,,,,,,,,500.013,502.694,6.2,2.68,0,23,23,23,1,2,24,AS,16A,He solved the complicated puzzle.
,,108199,022,1,2024-03-12_14h01.37.066,Memory and Syntax,2023.2.3,MacIntel,111.1111111,,,,,,,,,,,,,,,,,,,,,,,,,,,,,,,,,,,,,,,,,,502.694,507.33,5.5,4.634,0,24,24,24,1,2,25,AS,13A,You were bored with the book.
,,108199,022,1,2024-03-12_14h01.37.066,Memory and Syntax,2023.2.3,MacIntel,111.1111111,,,,,,,,,,,,,,,,,,,,,,,,,,,,,,,,,,,,,,,,,,507.331,510.18,6,2.848,0,25,25,25,1,2,26,ASV,21B,The villagers scattered themselves in all directions.
,,108199,022,1,2024-03-12_14h01.37.066,Memory and Syntax,2023.2.3,MacIntel,111.1111111,,,,,,,,,,,,,,,,,,,,,,,,,,,,,,,,,,,,,,,,,,510.181,513.027,5.9,2.845,0,26,26,26,1,2,27,WO,17A,She pulled the blinds hurriedly.
,,108199,022,1,2024-03-12_14h01.37.066,Memory and Syntax,2023.2.3,MacIntel,111.1111111,,,,,,,,,,,,,,,,,,,,,,,,,,,,,,,,,,,,,,,,,,513.027,516.309,6,3.274,0,27,27,27,1,2,28,AS,14A,A dog tumbled down the hill.
,,108199,022,1,2024-03-12_14h01.37.066,Memory and Syntax,2023.2.3,MacIntel,111.1111111,,,,,,,,,,,,,,,,,,,,,,,,,,,,,,,,,,,,,,,,,,516.309,519.893,2.2,3.577,0,28,28,28,1,2,29,ASV,19B,The pastor fell himself down the stairs.
,,108199,022,1,2024-03-12_14h01.37.066,Memory and Syntax,2023.2.3,MacIntel,111.1111111,,,,,,,,,,,,,,,,,,,,,,,,,,,,,,,,,,,,,,,,,,519.893,524.795,1.6,4.901,0,29,29,29,1,2,30,control,21B,There desires to be a new deal in the works.
,,108199,022,1,2024-03-12_14h01.37.066,Memory and Syntax,2023.2.3,MacIntel,111.1111111,,,,,,,,,,,,,,,,,,,,,,,,,,,,,,,,,,,,,,,,,,524.795,527.929,6.3,3.133,0,30,30,30,1,2,31,AS,18A,The teacher was tired of the bland school lunches.
,,108199,022,1,2024-03-12_14h01.37.066,Memory and Syntax,2023.2.3,MacIntel,111.1111111,,,,,,,,,,,,,,,,,,,,,,,,,,,,,,,,,,,,,,,,,,527.929,530.462,6.4,2.531,0,31,31,31,1,2,32,AS,15A,The patient calmed down.
,,108199,022,1,2024-03-12_14h01.37.066,Memory and Syntax,2023.2.3,MacIntel,111.1111111,,,,,,,,,,,,,,,,,,,,,,,,,,,,,,,,,,,,,,,,,,530.462,534.496,4.3,4.027,0,32,32,32,1,2,33,WOV,21B,Bought Mona the car.
,,108199,022,1,2024-03-12_14h01.37.066,Memory and Syntax,2023.2.3,MacIntel,111.1111111,,,,,,,,,,,,,,,,,,,,,,,,,,,,,,,,,,,,,,,,,,534.497,538.745,2.2,4.246,0,33,33,33,1,2,34,WOV,19B,Debated the historian the actor.
,,108199,022,1,2024-03-12_14h01.37.066,Memory and Syntax,2023.2.3,MacIntel,111.1111111,,,,,,,,,,,,,,,,,,,,,,,,,,,,,,,,,,,,,,,,,,538.745,546.144,2.8,7.394,0,34,34,34,1,2,35,control,20B,"If Aarthi probably comes, the party will be a disaster."