load.started,load.stopped,Sona ID,Participant ID,Session,date,expName,psychopyVersion,OS,frameRate,cvmtInstr.started,cvmtInstr.stopped,cvmtTaskInstr.started,cvmtTaskInstr.stopped,presentDesign.started,presentDesign.stopped,cvmt_key_resp.keys,cvmt_key_resp.corr,cvmtNoResp.started,cvmtNoResp.stopped,cvmt_key_resp2.keys,cvmt_key_resp2.corr,cvmt_key_resp2.rt,cvmt_key_resp2.duration,cvmtSampleFB.started,cvmtSampleFB.stopped,key_resp_15.keys,cvmtSampleFBFinal.started,cvmtSampleFBFinal.stopped,cvmt_final_samp_fb_key_resp.keys,cvmtTrials.thisRepN,cvmtTrials.thisTrialN,cvmtTrials.thisN,cvmtTrials.thisIndex,cvmtTrials.ran,cvmt_design,old_or_new,cvmt_key_resp.rt,cvmt_key_resp.duration,key_resp_15.rt,key_resp_15.duration,cvmt_final_samp_fb_key_resp.rt,cvmt_final_samp_fb_key_resp.duration,cvmtDelay.started,cvmtDelay.stopped,cvmt timer,engAJT_instr.started,engAJT_instr.stopped,start_ajt.keys,start_ajt.rt,start_ajt.duration,engAJT.started,engAJT.stopped,acceptability.response,acceptability.rt,engAJT_trials.thisRepN,engAJT_trials.thisTrialN,engAJT_trials.thisN,engAJT_trials.thisIndex,engAJT_trials.ran,ajt_list,list_position,condition,item,testSent
1E-04,0.1817,109755,085,1,2024-03-05_23h44.51.658,Memory and Syntax,2023.2.3,MacIntel,30.12048193,,,,,,,,,,,,,,,,,,,,,,,,,,,,,,,,,,,,,,,,,,,,,,,,,,,,,,,
,,109755,085,1,2024-03-05_23h44.51.658,Memory and Syntax,2023.2.3,MacIntel,30.12048193,0.1992,9.1578,9.1669,10.7892,10.8291,12.8236,,0,12.8244,12.8901,n,1,0.0214,,12.8916,12.8947,,12.8954,12.8972,,0,0,0,0,1,cvmt/sample/s1.jpg,n,,,,,,,,,,,,,,,,,,,,,,,,,,,,
,,109755,085,1,2024-03-05_23h44.51.658,Memory and Syntax,2023.2.3,MacIntel,30.12048193,,,,,12.8993,14.8899,n,1,14.8911,14.8927,,0,,,14.8933,17.5566,c,17.5578,17.5594,,0,1,1,1,1,cvmt/sample/s2.jpg,n,1.0116,,2.6237,,,,,,,,,,,,,,,,,,,,,,,,,
,,109755,085,1,2024-03-05_23h44.51.658,Memory and Syntax,2023.2.3,MacIntel,30.12048193,,,,,17.5708,19.5564,n,0,19.5576,19.5609,,0,,,19.5614,22.989,c,22.9897,22.991,,0,2,2,2,1,cvmt/sample/s3.jpg,o,1.1735,,3.414,,,,,,,,,,,,,,,,,,,,,,,,,
,,109755,085,1,2024-03-05_23h44.51.658,Memory and Syntax,2023.2.3,MacIntel,30.12048193,,,,,22.9934,24.9897,n,1,24.9909,24.9949,,0,,,24.9956,24.9978,,24.9983,24.9993,,0,3,3,3,1,cvmt/sample/s4.jpg,n,1.5132,,,,,,,,,,,,,,,,,,,,,,,,,,,
,,109755,085,1,2024-03-05_23h44.51.658,Memory and Syntax,2023.2.3,MacIntel,30.12048193,,,,,25.001,26.9897,n,1,26.9908,26.9923,,0,,,26.9929,26.9945,,26.9951,26.9962,,0,4,4,4,1,cvmt/sample/s5.jpg,n,0.7751,,,,,,,,,,,,,,,,,,,,,,,,,,,
,,109755,085,1,2024-03-05_23h44.51.658,Memory and Syntax,2023.2.3,MacIntel,30.12048193,,,,,26.998,28.9896,n,1,28.9908,28.9921,,0,,,28.9926,28.9941,,28.9946,28.9966,,0,5,5,5,1,cvmt/sample/s6.jpg,n,1.1628,,,,,,,,,,,,,,,,,,,,,,,,,,,
,,109755,085,1,2024-03-05_23h44.51.658,Memory and Syntax,2023.2.3,MacIntel,30.12048193,,,,,28.9986,30.9897,o,1,30.991,30.9925,,0,,,30.9931,30.9947,,30.9953,30.9964,,0,6,6,6,1,cvmt/sample/s7.jpg,o,0.7304,,,,,,,,,,,,,,,,,,,,,,,,,,,
,,109755,085,1,2024-03-05_23h44.51.658,Memory and Syntax,2023.2.3,MacIntel,30.12048193,,,,,30.9981,32.9896,n,1,32.9908,32.9934,,0,,,32.9947,32.9964,,32.997,32.9983,,0,7,7,7,1,cvmt/sample/s8.jpg,n,1.1394,,,,,,,,,,,,,,,,,,,,,,,,,,,
,,109755,085,1,2024-03-05_23h44.51.658,Memory and Syntax,2023.2.3,MacIntel,30.12048193,,,,,33.0003,34.9896,n,1,34.9908,34.9922,,0,,,34.9929,34.9945,,34.9951,34.9963,,0,8,8,8,1,cvmt/sample/s9.jpg,n,1.0751,,,,,,,,,,,,,,,,,,,,,,,,,,,
,,109755,085,1,2024-03-05_23h44.51.658,Memory and Syntax,2023.2.3,MacIntel,30.12048193,,,,,34.9982,36.9896,n,1,36.9908,36.992,,0,,,36.9926,36.9939,,36.9945,36.9965,,0,9,9,9,1,cvmt/sample/s10.jpg,n,0.5643,,,,,,,,,,,,,,,,,,,,,,,,,,,
,,109755,085,1,2024-03-05_23h44.51.658,Memory and Syntax,2023.2.3,MacIntel,30.12048193,,,,,36.9985,38.9895,n,0,38.9908,38.9922,,0,,,38.9928,42.4896,c,42.4908,50.1905,c,0,10,10,10,1,cvmt/sample/s11.jpg,o,0.5352,,3.4665,,7.6757,,,,,,,,,,,,,,,,,,,,,,,
,,109755,085,1,2024-03-05_23h44.51.658,Memory and Syntax,2023.2.3,MacIntel,30.12048193,,,50.1938,50.4218,50.4391,52.4219,n,1,52.4219,52.4223,,0,,,52.4223,52.4247,,52.4248,52.4255,,0,0,0,0,1,cvmt/test_items/t1.jpeg,n,1.7376,,,,,,,,,,,,,,,,,,,,,,,,,,,
,,109755,085,1,2024-03-05_23h44.51.658,Memory and Syntax,2023.2.3,MacIntel,30.12048193,,,,,52.4257,54.4219,n,1,54.4221,54.4224,,0,,,54.4224,54.423,,54.4231,54.4231,,0,1,1,1,1,cvmt/test_items/t2.jpeg,n,0.6526,,,,,,,,,,,,,,,,,,,,,,,,,,,
,,109755,085,1,2024-03-05_23h44.51.658,Memory and Syntax,2023.2.3,MacIntel,30.12048193,,,,,54.4235,56.4218,n,0,56.422,56.4222,,0,,,56.4223,56.4227,,56.4228,56.4228,,0,2,2,2,1,cvmt/test_items/t3.jpeg,o,0.6474,,,,,,,,,,,,,,,,,,,,,,,,,,,
,,109755,085,1,2024-03-05_23h44.51.658,Memory and Syntax,2023.2.3,MacIntel,30.12048193,,,,,56.4232,58.4211,n,0,58.4211,58.4214,,0,,,58.4214,58.4219,,58.422,58.4221,,0,3,3,3,1,cvmt/test_items/t4.jpeg,o,0.4992,,,,,,,,,,,,,,,,,,,,,,,,,,,
,,109755,085,1,2024-03-05_23h44.51.658,Memory and Syntax,2023.2.3,MacIntel,30.12048193,,,,,58.4225,60.4216,n,0,60.4217,60.422,,0,,,60.4221,60.4225,,60.4225,60.4227,,0,4,4,4,1,cvmt/test_items/t5.jpeg,o,0.4685,,,,,,,,,,,,,,,,,,,,,,,,,,,
,,109755,085,1,2024-03-05_23h44.51.658,Memory and Syntax,2023.2.3,MacIntel,30.12048193,,,,,60.423,62.4216,n,0,62.4217,62.422,,0,,,62.422,62.4225,,62.4225,62.4226,,0,5,5,5,1,cvmt/test_items/t6.jpeg,o,0.4143,,,,,,,,,,,,,,,,,,,,,,,,,,,
,,109755,085,1,2024-03-05_23h44.51.658,Memory and Syntax,2023.2.3,MacIntel,30.12048193,,,,,62.4229,64.4217,n,0,64.4219,64.4221,,0,,,64.4221,64.4226,,64.4226,64.4227,,0,6,6,6,1,cvmt/test_items/t7.jpeg,o,0.656,,,,,,,,,,,,,,,,,,,,,,,,,,,
,,109755,085,1,2024-03-05_23h44.51.658,Memory and Syntax,2023.2.3,MacIntel,30.12048193,,,,,64.4231,66.4216,o,1,66.4217,66.422,,0,,,66.422,66.4226,,66.4226,66.4227,,0,7,7,7,1,cvmt/test_items/t8.jpeg,o,0.5122,,,,,,,,,,,,,,,,,,,,,,,,,,,
,,109755,085,1,2024-03-05_23h44.51.658,Memory and Syntax,2023.2.3,MacIntel,30.12048193,,,,,66.423,68.4216,n,0,68.4217,68.422,,0,,,68.422,68.4226,,68.4226,68.4226,,0,8,8,8,1,cvmt/test_items/t9.jpeg,o,1.0953,,,,,,,,,,,,,,,,,,,,,,,,,,,
,,109755,085,1,2024-03-05_23h44.51.658,Memory and Syntax,2023.2.3,MacIntel,30.12048193,,,,,68.423,70.4216,o,1,70.4217,70.422,,0,,,70.422,70.4226,,70.4226,70.4227,,0,9,9,9,1,cvmt/test_items/t10.jpeg,o,1.5992,,,,,,,,,,,,,,,,,,,,,,,,,,,
,,109755,085,1,2024-03-05_23h44.51.658,Memory and Syntax,2023.2.3,MacIntel,30.12048193,,,,,70.4231,72.4219,n,1,72.422,72.4224,,0,,,72.4224,72.4229,,72.4229,72.4231,,0,10,10,10,1,cvmt/test_items/t11.jpeg,n,0.854,,,,,,,,,,,,,,,,,,,,,,,,,,,
,,109755,085,1,2024-03-05_23h44.51.658,Memory and Syntax,2023.2.3,MacIntel,30.12048193,,,,,72.4234,74.4216,n,0,74.4217,74.4219,,0,,,74.422,74.4226,,74.4226,74.4226,,0,11,11,11,1,cvmt/test_items/t12.jpeg,o,0.9021,,,,,,,,,,,,,,,,,,,,,,,,,,,
,,109755,085,1,2024-03-05_23h44.51.658,Memory and Syntax,2023.2.3,MacIntel,30.12048193,,,,,74.4229,76.4217,n,0,76.4217,76.4219,,0,,,76.422,76.4225,,76.4225,76.4226,,0,12,12,12,1,cvmt/test_items/t13.jpeg,o,0.926,,,,,,,,,,,,,,,,,,,,,,,,,,,
,,109755,085,1,2024-03-05_23h44.51.658,Memory and Syntax,2023.2.3,MacIntel,30.12048193,,,,,76.4229,78.4216,o,1,78.4216,78.4219,,0,,,78.422,78.4225,,78.4225,78.4225,,0,13,13,13,1,cvmt/test_items/t14.jpeg,o,1.1365,,,,,,,,,,,,,,,,,,,,,,,,,,,
,,109755,085,1,2024-03-05_23h44.51.658,Memory and Syntax,2023.2.3,MacIntel,30.12048193,,,,,78.4229,80.4216,o,1,80.4216,80.4219,,0,,,80.4219,80.4224,,80.4225,80.4226,,0,14,14,14,1,cvmt/test_items/t15.jpeg,o,0.8119,,,,,,,,,,,,,,,,,,,,,,,,,,,
,,109755,085,1,2024-03-05_23h44.51.658,Memory and Syntax,2023.2.3,MacIntel,30.12048193,,,,,80.4229,82.4206,o,1,82.4207,82.4209,,0,,,82.4209,82.4216,,82.4216,82.4217,,0,15,15,15,1,cvmt/test_items/t16.jpeg,o,0.7086,,,,,,,,,,,,,,,,,,,,,,,,,,,
,,109755,085,1,2024-03-05_23h44.51.658,Memory and Syntax,2023.2.3,MacIntel,30.12048193,,,,,82.422,84.4216,n,0,84.4217,84.4219,,0,,,84.4219,84.4224,,84.4224,84.4226,,0,16,16,16,1,cvmt/test_items/t17.jpeg,o,1.0141,,,,,,,,,,,,,,,,,,,,,,,,,,,
,,109755,085,1,2024-03-05_23h44.51.658,Memory and Syntax,2023.2.3,MacIntel,30.12048193,,,,,84.4229,86.4215,o,1,86.4216,86.4219,,0,,,86.4219,86.4225,,86.4225,86.4226,,0,17,17,17,1,cvmt/test_items/t18.jpeg,o,0.8797,,,,,,,,,,,,,,,,,,,,,,,,,,,
,,109755,085,1,2024-03-05_23h44.51.658,Memory and Syntax,2023.2.3,MacIntel,30.12048193,,,,,86.423,88.4217,n,1,88.4217,88.422,,0,,,88.4221,88.4226,,88.4226,88.4226,,0,18,18,18,1,cvmt/test_items/t19.jpeg,n,0.6261,,,,,,,,,,,,,,,,,,,,,,,,,,,
,,109755,085,1,2024-03-05_23h44.51.658,Memory and Syntax,2023.2.3,MacIntel,30.12048193,,,,,88.423,90.4216,o,1,90.4216,90.4219,,0,,,90.4219,90.4224,,90.4225,90.4225,,0,19,19,19,1,cvmt/test_items/t20.jpeg,o,0.7163,,,,,,,,,,,,,,,,,,,,,,,,,,,
,,109755,085,1,2024-03-05_23h44.51.658,Memory and Syntax,2023.2.3,MacIntel,30.12048193,,,,,90.423,92.4215,o,1,92.4216,92.4219,,0,,,92.4219,92.4224,,92.4224,92.4225,,0,20,20,20,1,cvmt/test_items/t21.jpeg,o,1.0363,,,,,,,,,,,,,,,,,,,,,,,,,,,
,,109755,085,1,2024-03-05_23h44.51.658,Memory and Syntax,2023.2.3,MacIntel,30.12048193,,,,,92.4228,94.4216,n,0,94.4218,94.422,,0,,,94.4221,94.4226,,94.4226,94.4227,,0,21,21,21,1,cvmt/test_items/t22.jpeg,o,0.737,,,,,,,,,,,,,,,,,,,,,,,,,,,
,,109755,085,1,2024-03-05_23h44.51.658,Memory and Syntax,2023.2.3,MacIntel,30.12048193,,,,,94.423,96.4216,o,0,96.4216,96.4219,,0,,,96.4219,96.4224,,96.4224,96.4226,,0,22,22,22,1,cvmt/test_items/t23.jpeg,n,1.1054,,,,,,,,,,,,,,,,,,,,,,,,,,,
,,109755,085,1,2024-03-05_23h44.51.658,Memory and Syntax,2023.2.3,MacIntel,30.12048193,,,,,96.4229,98.4206,n,1,98.4206,98.4208,,0,,,98.4209,98.4214,,98.4215,98.4216,,0,23,23,23,1,cvmt/test_items/t24.jpeg,n,0.9206,,,,,,,,,,,,,,,,,,,,,,,,,,,
,,109755,085,1,2024-03-05_23h44.51.658,Memory and Syntax,2023.2.3,MacIntel,30.12048193,,,,,98.4218,100.4215,o,1,100.4215,100.4218,,0,,,100.4218,100.4224,,100.4224,100.4225,,0,24,24,24,1,cvmt/test_items/t25.jpeg,o,0.8199,,,,,,,,,,,,,,,,,,,,,,,,,,,
,,109755,085,1,2024-03-05_23h44.51.658,Memory and Syntax,2023.2.3,MacIntel,30.12048193,,,,,100.4228,102.4215,n,1,102.4216,102.4218,,0,,,102.4218,102.4224,,102.4224,102.4224,,0,25,25,25,1,cvmt/test_items/t26.jpeg,n,0.5865,,,,,,,,,,,,,,,,,,,,,,,,,,,
,,109755,085,1,2024-03-05_23h44.51.658,Memory and Syntax,2023.2.3,MacIntel,30.12048193,,,,,102.4229,104.4216,o,1,104.4217,104.4219,,0,,,104.4219,104.4225,,104.4225,104.4226,,0,26,26,26,1,cvmt/test_items/t27.jpeg,o,0.766,,,,,,,,,,,,,,,,,,,,,,,,,,,
,,109755,085,1,2024-03-05_23h44.51.658,Memory and Syntax,2023.2.3,MacIntel,30.12048193,,,,,104.4229,106.4216,n,1,106.4216,106.4219,,0,,,106.422,106.4224,,106.4225,106.4226,,0,27,27,27,1,cvmt/test_items/t28.jpeg,n,0.6097,,,,,,,,,,,,,,,,,,,,,,,,,,,
,,109755,085,1,2024-03-05_23h44.51.658,Memory and Syntax,2023.2.3,MacIntel,30.12048193,,,,,106.4229,108.4216,,0,108.4217,108.4883,o,0,0.0424,,108.4884,108.489,,108.4891,108.4892,,0,28,28,28,1,cvmt/test_items/t29.jpeg,n,,,,,,,,,,,,,,,,,,,,,,,,,,,,
,,109755,085,1,2024-03-05_23h44.51.658,Memory and Syntax,2023.2.3,MacIntel,30.12048193,,,,,108.4896,110.4882,n,0,110.4883,110.4885,,0,,,110.4886,110.4891,,110.4891,110.4893,,0,29,29,29,1,cvmt/test_items/t30.jpeg,o,0.6952,,,,,,,,,,,,,,,,,,,,,,,,,,,
,,109755,085,1,2024-03-05_23h44.51.658,Memory and Syntax,2023.2.3,MacIntel,30.12048193,,,,,110.4896,112.4881,o,1,112.4882,112.4885,,0,,,112.4885,112.489,,112.4891,112.4892,,0,30,30,30,1,cvmt/test_items/t31.jpeg,o,0.7288,,,,,,,,,,,,,,,,,,,,,,,,,,,
,,109755,085,1,2024-03-05_23h44.51.658,Memory and Syntax,2023.2.3,MacIntel,30.12048193,,,,,112.4895,114.4882,n,1,114.4883,114.4886,,0,,,114.4887,114.4892,,114.4892,114.4893,,0,31,31,31,1,cvmt/test_items/t32.jpeg,n,0.8454,,,,,,,,,,,,,,,,,,,,,,,,,,,
,,109755,085,1,2024-03-05_23h44.51.658,Memory and Syntax,2023.2.3,MacIntel,30.12048193,,,,,114.4898,116.4881,,0,116.4881,118.6212,n,1,2.1269,,118.6212,118.6273,,118.6273,118.6274,,0,32,32,32,1,cvmt/test_items/t33.jpeg,n,,,,,,,,,,,,,,,,,,,,,,,,,,,,
,,109755,085,1,2024-03-05_23h44.51.658,Memory and Syntax,2023.2.3,MacIntel,30.12048193,,,,,118.6276,120.6214,o,1,120.6215,120.6241,,0,,,120.6241,120.6245,,120.6245,120.6246,,0,33,33,33,1,cvmt/test_items/t34.jpeg,o,1.0502,,,,,,,,,,,,,,,,,,,,,,,,,,,
,,109755,085,1,2024-03-05_23h44.51.658,Memory and Syntax,2023.2.3,MacIntel,30.12048193,,,,,120.6248,122.6214,n,1,122.6215,122.6218,,0,,,122.6219,122.6224,,122.6224,122.6225,,0,34,34,34,1,cvmt/test_items/t35.jpeg,n,0.7626,,,,,,,,,,,,,,,,,,,,,,,,,,,
,,109755,085,1,2024-03-05_23h44.51.658,Memory and Syntax,2023.2.3,MacIntel,30.12048193,,,,,122.6228,124.6215,o,1,124.6216,124.6218,,0,,,124.6219,124.6225,,124.6225,124.6225,,0,35,35,35,1,cvmt/test_items/t36.jpeg,o,0.3305,,,,,,,,,,,,,,,,,,,,,,,,,,,
,,109755,085,1,2024-03-05_23h44.51.658,Memory and Syntax,2023.2.3,MacIntel,30.12048193,,,,,124.6228,126.6214,o,0,126.6215,126.6217,,0,,,126.6217,126.6223,,126.6224,126.6224,,0,36,36,36,1,cvmt/test_items/t37.jpeg,n,0.2476,,,,,,,,,,,,,,,,,,,,,,,,,,,
,,109755,085,1,2024-03-05_23h44.51.658,Memory and Syntax,2023.2.3,MacIntel,30.12048193,,,,,126.6227,128.6214,o,1,128.6215,128.6218,,0,,,128.6218,128.6223,,128.6223,128.6225,,0,37,37,37,1,cvmt/test_items/t38.jpeg,o,0.8386,,,,,,,,,,,,,,,,,,,,,,,,,,,
,,109755,085,1,2024-03-05_23h44.51.658,Memory and Syntax,2023.2.3,MacIntel,30.12048193,,,,,128.6227,130.6216,o,0,130.6217,130.6219,,0,,,130.622,130.6225,,130.6226,130.6227,,0,38,38,38,1,cvmt/test_items/t39.jpeg,n,0.7013,,,,,,,,,,,,,,,,,,,,,,,,,,,
,,109755,085,1,2024-03-05_23h44.51.658,Memory and Syntax,2023.2.3,MacIntel,30.12048193,,,,,130.6231,132.6214,n,0,132.6214,132.6217,,0,,,132.6217,132.6223,,132.6223,132.6224,,0,39,39,39,1,cvmt/test_items/t40.jpeg,o,0.3945,,,,,,,,,,,,,,,,,,,,,,,,,,,
,,109755,085,1,2024-03-05_23h44.51.658,Memory and Syntax,2023.2.3,MacIntel,30.12048193,,,,,132.6227,134.6215,o,0,134.6215,134.6217,,0,,,134.6218,134.6223,,134.6223,134.6224,,0,40,40,40,1,cvmt/test_items/t41.jpeg,n,0.6178,,,,,,,,,,,,,,,,,,,,,,,,,,,
,,109755,085,1,2024-03-05_23h44.51.658,Memory and Syntax,2023.2.3,MacIntel,30.12048193,,,,,134.6228,136.6214,o,1,136.6215,136.6217,,0,,,136.6217,136.6224,,136.6225,136.6226,,0,41,41,41,1,cvmt/test_items/t42.jpeg,o,0.6311,,,,,,,,,,,,,,,,,,,,,,,,,,,
,,109755,085,1,2024-03-05_23h44.51.658,Memory and Syntax,2023.2.3,MacIntel,30.12048193,,,,,136.6229,138.6213,o,1,138.6214,138.6216,,0,,,138.6217,138.6222,,138.6223,138.6224,,0,42,42,42,1,cvmt/test_items/t43.jpeg,o,1.5672,,,,,,,,,,,,,,,,,,,,,,,,,,,
,,109755,085,1,2024-03-05_23h44.51.658,Memory and Syntax,2023.2.3,MacIntel,30.12048193,,,,,138.6228,140.6214,o,0,140.6214,140.6217,,0,,,140.6217,140.6223,,140.6224,140.6225,,0,43,43,43,1,cvmt/test_items/t44.jpeg,n,0.5981,,,,,,,,,,,,,,,,,,,,,,,,,,,
,,109755,085,1,2024-03-05_23h44.51.658,Memory and Syntax,2023.2.3,MacIntel,30.12048193,,,,,140.6228,142.6214,o,1,142.6214,142.6216,,0,,,142.6217,142.6222,,142.6222,142.6224,,0,44,44,44,1,cvmt/test_items/t45.jpeg,o,0.7683,,,,,,,,,,,,,,,,,,,,,,,,,,,
,,109755,085,1,2024-03-05_23h44.51.658,Memory and Syntax,2023.2.3,MacIntel,30.12048193,,,,,142.6227,144.6213,o,1,144.6213,144.6216,,0,,,144.6216,144.6222,,144.6222,144.6223,,0,45,45,45,1,cvmt/test_items/t46.jpeg,o,1.9135,,,,,,,,,,,,,,,,,,,,,,,,,,,
,,109755,085,1,2024-03-05_23h44.51.658,Memory and Syntax,2023.2.3,MacIntel,30.12048193,,,,,144.6226,146.6214,o,1,146.6214,146.6217,,0,,,146.6218,146.6223,,146.6223,146.6224,,0,46,46,46,1,cvmt/test_items/t47.jpeg,o,1.4059,,,,,,,,,,,,,,,,,,,,,,,,,,,
,,109755,085,1,2024-03-05_23h44.51.658,Memory and Syntax,2023.2.3,MacIntel,30.12048193,,,,,146.6227,148.6214,o,0,148.6215,148.6217,,0,,,148.6217,148.6223,,148.6223,148.6224,,0,47,47,47,1,cvmt/test_items/t48.jpeg,n,0.6358,,,,,,,,,,,,,,,,,,,,,,,,,,,
,,109755,085,1,2024-03-05_23h44.51.658,Memory and Syntax,2023.2.3,MacIntel,30.12048193,,,,,148.6228,150.6213,,0,150.6214,150.6217,,0,,,150.6217,150.6222,,150.6222,150.6223,,0,48,48,48,1,cvmt/test_items/t49.jpeg,o,,,,,,,,,,,,,,,,,,,,,,,,,,,,
,,109755,085,1,2024-03-05_23h44.51.658,Memory and Syntax,2023.2.3,MacIntel,30.12048193,,,,,150.6227,152.6213,o,1,152.6213,152.6217,,0,,,152.6217,152.6222,,152.6222,152.6223,,0,49,49,49,1,cvmt/test_items/t50.jpeg,o,0.6824,,,,,,,,,,,,,,,,,,,,,,,,,,,
,,109755,085,1,2024-03-05_23h44.51.658,Memory and Syntax,2023.2.3,MacIntel,30.12048193,,,,,152.6226,154.6216,n,1,154.6216,154.6219,,0,,,154.6219,154.6224,,154.6224,154.6225,,0,50,50,50,1,cvmt/test_items/t51.jpeg,n,0.9293,,,,,,,,,,,,,,,,,,,,,,,,,,,
,,109755,085,1,2024-03-05_23h44.51.658,Memory and Syntax,2023.2.3,MacIntel,30.12048193,,,,,154.6229,156.6212,o,1,156.6213,156.6216,,0,,,156.6216,156.6221,,156.6221,156.6223,,0,51,51,51,1,cvmt/test_items/t52.jpeg,o,0.8185,,,,,,,,,,,,,,,,,,,,,,,,,,,
,,109755,085,1,2024-03-05_23h44.51.658,Memory and Syntax,2023.2.3,MacIntel,30.12048193,,,,,156.6226,158.6213,o,1,158.6213,158.6217,,0,,,158.6217,158.6222,,158.6222,158.6223,,0,52,52,52,1,cvmt/test_items/t53.jpeg,o,0.946,,,,,,,,,,,,,,,,,,,,,,,,,,,
,,109755,085,1,2024-03-05_23h44.51.658,Memory and Syntax,2023.2.3,MacIntel,30.12048193,,,,,158.6226,160.6213,o,1,160.6213,160.6216,,0,,,160.6217,160.6222,,160.6222,160.6223,,0,53,53,53,1,cvmt/test_items/t54.jpeg,o,1.6803,,,,,,,,,,,,,,,,,,,,,,,,,,,
,,109755,085,1,2024-03-05_23h44.51.658,Memory and Syntax,2023.2.3,MacIntel,30.12048193,,,,,160.6226,162.6213,n,0,162.6214,162.6216,,0,,,162.6216,162.6222,,162.6223,162.6223,,0,54,54,54,1,cvmt/test_items/t55.jpeg,o,0.648,,,,,,,,,,,,,,,,,,,,,,,,,,,
,,109755,085,1,2024-03-05_23h44.51.658,Memory and Syntax,2023.2.3,MacIntel,30.12048193,,,,,162.6226,164.6212,o,1,164.6213,164.6215,,0,,,164.6216,164.6221,,164.6221,164.6222,,0,55,55,55,1,cvmt/test_items/t56.jpeg,o,1.475,,,,,,,,,,,,,,,,,,,,,,,,,,,
,,109755,085,1,2024-03-05_23h44.51.658,Memory and Syntax,2023.2.3,MacIntel,30.12048193,,,,,164.6226,166.6212,,0,166.6213,166.9212,o,1,0.2814,,166.9212,166.9217,,166.9218,166.9219,,0,56,56,56,1,cvmt/test_items/t57.jpeg,o,,,,,,,,,,,,,,,,,,,,,,,,,,,,
,,109755,085,1,2024-03-05_23h44.51.658,Memory and Syntax,2023.2.3,MacIntel,30.12048193,,,,,166.9221,168.9212,o,0,168.9212,168.9216,,0,,,168.9216,168.9221,,168.9221,168.9222,,0,57,57,57,1,cvmt/test_items/t58.jpeg,n,0.7824,,,,,,,,,,,,,,,,,,,,,,,,,,,
,,109755,085,1,2024-03-05_23h44.51.658,Memory and Syntax,2023.2.3,MacIntel,30.12048193,,,,,168.9226,170.9212,n,1,170.9213,170.9215,,0,,,170.9215,170.9222,,170.9222,170.9222,,0,58,58,58,1,cvmt/test_items/t59.jpeg,n,0.8659,,,,,,,,,,,,,,,,,,,,,,,,,,,
,,109755,085,1,2024-03-05_23h44.51.658,Memory and Syntax,2023.2.3,MacIntel,30.12048193,,,,,170.9226,172.9212,o,1,172.9213,172.9216,,0,,,172.9216,172.9221,,172.9221,172.9222,,0,59,59,59,1,cvmt/test_items/t60.jpeg,o,0.6655,,,,,,,,,,,,,,,,,,,,,,,,,,,
,,109755,085,1,2024-03-05_23h44.51.658,Memory and Syntax,2023.2.3,MacIntel,30.12048193,,,,,172.9225,174.9212,n,0,174.9213,174.9216,,0,,,174.9216,174.9221,,174.9221,174.9222,,0,60,60,60,1,cvmt/test_items/t61.jpeg,o,0.5612,,,,,,,,,,,,,,,,,,,,,,,,,,,
,,109755,085,1,2024-03-05_23h44.51.658,Memory and Syntax,2023.2.3,MacIntel,30.12048193,,,,,174.9225,176.9213,o,1,176.9213,176.9216,,0,,,176.9217,176.9222,,176.9222,176.9222,,0,61,61,61,1,cvmt/test_items/t62.jpeg,o,0.4797,,,,,,,,,,,,,,,,,,,,,,,,,,,
,,109755,085,1,2024-03-05_23h44.51.658,Memory and Syntax,2023.2.3,MacIntel,30.12048193,,,,,176.9226,178.9212,o,1,178.9212,178.9215,,0,,,178.9215,178.922,,178.922,178.9222,,0,62,62,62,1,cvmt/test_items/t63.jpeg,o,1.4792,,,,,,,,,,,,,,,,,,,,,,,,,,,
,,109755,085,1,2024-03-05_23h44.51.658,Memory and Syntax,2023.2.3,MacIntel,30.12048193,,,,,178.9225,180.9212,,0,180.9213,189.4871,o,1,8.5597,,189.4871,189.4971,,189.4971,189.4972,,0,63,63,63,1,cvmt/test_items/t64.jpeg,o,,,,,,,,,,,,,,,,,,,,,,,,,,,,
,,109755,085,1,2024-03-05_23h44.51.658,Memory and Syntax,2023.2.3,MacIntel,30.12048193,,,,,189.4973,191.4879,o,1,191.488,191.4901,,0,,,191.4902,191.4906,,191.4906,191.4907,,0,64,64,64,1,cvmt/test_items/t65.jpeg,o,1.0241,,,,,,,,,,,,,,,,,,,,,,,,,,,
,,109755,085,1,2024-03-05_23h44.51.658,Memory and Syntax,2023.2.3,MacIntel,30.12048193,,,,,191.4909,193.4879,o,1,193.488,193.4882,,0,,,193.4882,193.4888,,193.4888,193.4889,,0,65,65,65,1,cvmt/test_items/t66.jpeg,o,0.8747,,,,,,,,,,,,,,,,,,,,,,,,,,,
,,109755,085,1,2024-03-05_23h44.51.658,Memory and Syntax,2023.2.3,MacIntel,30.12048193,,,,,193.4892,195.4877,o,0,195.4878,195.4881,,0,,,195.4882,195.4887,,195.4888,195.4889,,0,66,66,66,1,cvmt/test_items/t67.jpeg,n,0.4512,,,,,,,,,,,,,,,,,,,,,,,,,,,
,,109755,085,1,2024-03-05_23h44.51.658,Memory and Syntax,2023.2.3,MacIntel,30.12048193,,,,,195.4893,197.4878,o,1,197.4878,197.4882,,0,,,197.4882,197.4888,,197.4888,197.4889,,0,67,67,67,1,cvmt/test_items/t68.jpeg,o,0.7657,,,,,,,,,,,,,,,,,,,,,,,,,,,
,,109755,085,1,2024-03-05_23h44.51.658,Memory and Syntax,2023.2.3,MacIntel,30.12048193,,,,,197.4892,199.4878,o,1,199.4878,199.4881,,0,,,199.4882,199.4887,,199.4887,199.4888,,0,68,68,68,1,cvmt/test_items/t69.jpeg,o,0.3967,,,,,,,,,,,,,,,,,,,,,,,,,,,
,,109755,085,1,2024-03-05_23h44.51.658,Memory and Syntax,2023.2.3,MacIntel,30.12048193,,,,,199.4891,201.4877,o,1,201.4878,201.488,,0,,,201.4882,201.4887,,201.4887,201.4888,,0,69,69,69,1,cvmt/test_items/t70.jpeg,o,1.1171,,,,,,,,,,,,,,,,,,,,,,,,,,,
,,109755,085,1,2024-03-05_23h44.51.658,Memory and Syntax,2023.2.3,MacIntel,30.12048193,,,,,201.4892,203.4877,o,0,203.4879,203.4881,,0,,,203.4881,203.4886,,203.4886,203.4887,,0,70,70,70,1,cvmt/test_items/t71.jpeg,n,1.2425,,,,,,,,,,,,,,,,,,,,,,,,,,,
,,109755,085,1,2024-03-05_23h44.51.658,Memory and Syntax,2023.2.3,MacIntel,30.12048193,,,,,203.4891,205.4878,,0,205.4879,207.5878,o,1,2.0675,,207.5879,207.598,,207.598,207.598,,0,71,71,71,1,cvmt/test_items/t72.jpeg,o,,,,,,,,,,,,,,,,,,,,,,,,,,,,
,,109755,085,1,2024-03-05_23h44.51.658,Memory and Syntax,2023.2.3,MacIntel,30.12048193,,,,,207.5982,209.5877,n,0,209.5877,209.5904,,0,,,209.5904,209.5908,,209.5908,209.5909,,0,72,72,72,1,cvmt/test_items/t73.jpeg,o,0.8219,,,,,,,,,,,,,,,,,,,,,,,,,,,
,,109755,085,1,2024-03-05_23h44.51.658,Memory and Syntax,2023.2.3,MacIntel,30.12048193,,,,,209.5911,211.5877,o,1,211.5877,211.588,,0,,,211.588,211.5886,,211.5886,211.5887,,0,73,73,73,1,cvmt/test_items/t74.jpeg,o,0.2956,,,,,,,,,,,,,,,,,,,,,,,,,,,
,,109755,085,1,2024-03-05_23h44.51.658,Memory and Syntax,2023.2.3,MacIntel,30.12048193,,,,,211.589,213.588,n,0,213.588,213.5883,,0,,,213.5883,213.5888,,213.5888,213.5889,,0,74,74,74,1,cvmt/test_items/t75.jpeg,o,0.7448,,,,,,,,,,,,,,,,,,,,,,,,,,,
,,109755,085,1,2024-03-05_23h44.51.658,Memory and Syntax,2023.2.3,MacIntel,30.12048193,,,,,213.5893,215.5877,o,1,215.5878,215.588,,0,,,215.588,215.5887,,215.5888,215.5888,,0,75,75,75,1,cvmt/test_items/t76.jpeg,o,0.5572,,,,,,,,,,,,,,,,,,,,,,,,,,,
,,109755,085,1,2024-03-05_23h44.51.658,Memory and Syntax,2023.2.3,MacIntel,30.12048193,,,,,215.5892,217.5878,o,1,217.5878,217.5881,,0,,,217.5882,217.5887,,217.5887,217.5887,,0,76,76,76,1,cvmt/test_items/t77.jpeg,o,0.8798,,,,,,,,,,,,,,,,,,,,,,,,,,,
,,109755,085,1,2024-03-05_23h44.51.658,Memory and Syntax,2023.2.3,MacIntel,30.12048193,,,,,217.5891,219.5876,,0,219.5878,221.1877,n,0,1.569,,221.1878,221.1997,,221.1997,221.1998,,0,77,77,77,1,cvmt/test_items/t78.jpeg,o,,,,,,,,,,,,,,,,,,,,,,,,,,,,
,,109755,085,1,2024-03-05_23h44.51.658,Memory and Syntax,2023.2.3,MacIntel,30.12048193,,,,,221.1999,223.188,,0,223.1881,224.4877,n,0,1.292,,224.4877,224.4965,,224.4965,224.4966,,0,78,78,78,1,cvmt/test_items/t79.jpeg,o,,,,,,,,,,,,,,,,,,,,,,,,,,,,
,,109755,085,1,2024-03-05_23h44.51.658,Memory and Syntax,2023.2.3,MacIntel,30.12048193,,,,,224.4968,226.4876,o,0,226.4877,226.49,,0,,,226.49,226.4904,,226.4904,226.4905,,0,79,79,79,1,cvmt/test_items/t80.jpeg,n,0.7887,,,,,,,,,,,,,,,,,,,,,,,,,,,
,,109755,085,1,2024-03-05_23h44.51.658,Memory and Syntax,2023.2.3,MacIntel,30.12048193,,,,,226.4907,228.4877,o,1,228.4877,228.4879,,0,,,228.488,228.4885,,228.4885,228.4885,,0,80,80,80,1,cvmt/test_items/t81.jpeg,o,1.4255,,,,,,,,,,,,,,,,,,,,,,,,,,,
,,109755,085,1,2024-03-05_23h44.51.658,Memory and Syntax,2023.2.3,MacIntel,30.12048193,,,,,228.4889,230.4876,o,1,230.4877,230.4881,,0,,,230.4881,230.4886,,230.4887,230.4888,,0,81,81,81,1,cvmt/test_items/t82.jpeg,o,0.2342,,,,,,,,,,,,,,,,,,,,,,,,,,,
,,109755,085,1,2024-03-05_23h44.51.658,Memory and Syntax,2023.2.3,MacIntel,30.12048193,,,,,230.4891,232.4877,o,1,232.4878,232.4881,,0,,,232.4881,232.4886,,232.4887,232.4887,,0,82,82,82,1,cvmt/test_items/t83.jpeg,o,0.2945,,,,,,,,,,,,,,,,,,,,,,,,,,,
,,109755,085,1,2024-03-05_23h44.51.658,Memory and Syntax,2023.2.3,MacIntel,30.12048193,,,,,232.4891,234.4877,o,1,234.4877,234.4881,,0,,,234.4881,234.4886,,234.4887,234.4887,,0,83,83,83,1,cvmt/test_items/t84.jpeg,o,0.7835,,,,,,,,,,,,,,,,,,,,,,,,,,,
,,109755,085,1,2024-03-05_23h44.51.658,Memory and Syntax,2023.2.3,MacIntel,30.12048193,,,,,234.4891,236.4877,,0,236.4878,240.7211,n,0,4.1999,,240.7212,240.7339,,240.7339,240.734,,0,84,84,84,1,cvmt/test_items/t85.jpeg,o,,,,,,,,,,,,,,,,,,,,,,,,,,,,
,,109755,085,1,2024-03-05_23h44.51.658,Memory and Syntax,2023.2.3,MacIntel,30.12048193,,,,,240.7342,242.7209,o,1,242.7211,242.7238,,0,,,242.7238,242.7241,,242.7241,242.7242,,0,85,85,85,1,cvmt/test_items/t86.jpeg,o,0.6536,,,,,,,,,,,,,,,,,,,,,,,,,,,
,,109755,085,1,2024-03-05_23h44.51.658,Memory and Syntax,2023.2.3,MacIntel,30.12048193,,,,,242.7244,244.7211,n,0,244.7212,244.7214,,0,,,244.7214,244.722,,244.722,244.7221,,0,86,86,86,1,cvmt/test_items/t87.jpeg,o,0.4624,,,,,,,,,,,,,,,,,,,,,,,,,,,
,,109755,085,1,2024-03-05_23h44.51.658,Memory and Syntax,2023.2.3,MacIntel,30.12048193,,,,,244.7224,246.7209,o,0,246.721,246.7213,,0,,,246.7214,246.7219,,246.7219,246.7219,,0,87,87,87,1,cvmt/test_items/t88.jpeg,n,0.7605,,,,,,,,,,,,,,,,,,,,,,,,,,,
,,109755,085,1,2024-03-05_23h44.51.658,Memory and Syntax,2023.2.3,MacIntel,30.12048193,,,,,246.7223,248.7209,n,1,248.721,248.7214,,0,,,248.7214,248.7219,,248.722,248.7221,,0,88,88,88,1,cvmt/test_items/t89.jpeg,n,0.4742,,,,,,,,,,,,,,,,,,,,,,,,,,,
,,109755,085,1,2024-03-05_23h44.51.658,Memory and Syntax,2023.2.3,MacIntel,30.12048193,,,,,248.7224,250.7209,n,0,250.7209,250.7212,,0,,,250.7212,250.7218,,250.7218,250.7219,,0,89,89,89,1,cvmt/test_items/t90.jpeg,o,0.326,,,,,,,,,,,,,,,,,,,,,,,,,,,
,,109755,085,1,2024-03-05_23h44.51.658,Memory and Syntax,2023.2.3,MacIntel,30.12048193,,,,,250.7222,252.7209,n,0,252.721,252.7212,,0,,,252.7213,252.7218,,252.7219,252.7219,,0,90,90,90,1,cvmt/test_items/t91.jpeg,o,0.6595,,,,,,,,,,,,,,,,,,,,,,,,,,,
,,109755,085,1,2024-03-05_23h44.51.658,Memory and Syntax,2023.2.3,MacIntel,30.12048193,,,,,252.7223,254.721,o,1,254.721,254.7213,,0,,,254.7213,254.7218,,254.7219,254.7219,,0,91,91,91,1,cvmt/test_items/t92.jpeg,o,1.4957,,,,,,,,,,,,,,,,,,,,,,,,,,,
,,109755,085,1,2024-03-05_23h44.51.658,Memory and Syntax,2023.2.3,MacIntel,30.12048193,,,,,254.7223,256.7208,,0,256.7209,256.9875,o,1,0.2594,,256.9875,256.988,,256.9881,256.9881,,0,92,92,92,1,cvmt/test_items/t93.jpeg,o,,,,,,,,,,,,,,,,,,,,,,,,,,,,
,,109755,085,1,2024-03-05_23h44.51.658,Memory and Syntax,2023.2.3,MacIntel,30.12048193,,,,,256.9883,258.9875,o,1,258.9876,258.9879,,0,,,258.9879,258.9885,,258.9885,258.9887,,0,93,93,93,1,cvmt/test_items/t94.jpeg,o,0.7701,,,,,,,,,,,,,,,,,,,,,,,,,,,
,,109755,085,1,2024-03-05_23h44.51.658,Memory and Syntax,2023.2.3,MacIntel,30.12048193,,,,,258.989,260.9874,n,0,260.9874,260.9877,,0,,,260.9877,260.9881,,260.9881,260.9882,,0,94,94,94,1,cvmt/test_items/t95.jpeg,o,0.5617,,,,,,,,,,,,,,,,,,,,,,,,,,,
,,109755,085,1,2024-03-05_23h44.51.658,Memory and Syntax,2023.2.3,MacIntel,30.12048193,,,,,260.9884,262.9875,o,1,262.9876,262.9879,,0,,,262.9879,262.9885,,262.9885,262.9887,,0,95,95,95,1,cvmt/test_items/t96.jpeg,o,0.7051,,,,,,,,,,,,,,,,,,,,,,,,,,,
,,109755,085,1,2024-03-05_23h44.51.658,Memory and Syntax,2023.2.3,MacIntel,30.12048193,,,,,262.989,264.9875,o,1,264.9875,264.9878,,0,,,264.9879,264.9884,,264.9884,264.9885,,0,96,96,96,1,cvmt/test_items/t97.jpeg,o,0.8473,,,,,,,,,,,,,,,,,,,,,,,,,,,
,,109755,085,1,2024-03-05_23h44.51.658,Memory and Syntax,2023.2.3,MacIntel,30.12048193,,,,,264.9889,266.9875,,0,266.9875,269.154,n,1,2.1568,,269.1541,269.1632,,269.1632,269.1633,,0,97,97,97,1,cvmt/test_items/t98.jpeg,n,,,,,,,,,,,,,,,,,,,,,,,,,,,,
,,109755,085,1,2024-03-05_23h44.51.658,Memory and Syntax,2023.2.3,MacIntel,30.12048193,,,,,269.1634,271.1544,o,1,271.1545,271.157,,0,,,271.1571,271.1574,,271.1575,271.1575,,0,98,98,98,1,cvmt/test_items/t99.jpeg,o,0.8893,,,,,,,,,,,,,,,,,,,,,,,,,,,
,,109755,085,1,2024-03-05_23h44.51.658,Memory and Syntax,2023.2.3,MacIntel,30.12048193,,,,,271.1578,273.1541,,0,273.1542,277.6549,o,1,4.4958,,277.655,277.6641,,277.6641,277.6642,,0,99,99,99,1,cvmt/test_items/t100.jpeg,o,,,,,,,,,,,,,,,,,,,,,,,,,,,,
,,109755,085,1,2024-03-05_23h44.51.658,Memory and Syntax,2023.2.3,MacIntel,30.12048193,,,,,277.6643,279.654,o,1,279.6541,279.6554,,0,,,279.6554,279.6558,,279.6558,279.6559,,0,100,100,100,1,cvmt/test_items/t101.jpeg,o,0.8459,,,,,,,,,,,,,,,,,,,,,,,,,,,
,,109755,085,1,2024-03-05_23h44.51.658,Memory and Syntax,2023.2.3,MacIntel,30.12048193,,,,,279.656,281.6544,n,0,281.6544,281.6547,,0,,,281.6548,281.6553,,281.6553,281.6555,,0,101,101,101,1,cvmt/test_items/t102.jpeg,o,0.6164,,,,,,,,,,,,,,,,,,,,,,,,,,,
,,109755,085,1,2024-03-05_23h44.51.658,Memory and Syntax,2023.2.3,MacIntel,30.12048193,,,,,281.6558,283.6541,o,1,283.6542,283.6544,,0,,,283.6545,283.655,,283.6551,283.6551,,0,102,102,102,1,cvmt/test_items/t103.jpeg,o,0.9262,,,,,,,,,,,,,,,,,,,,,,,,,,,
,,109755,085,1,2024-03-05_23h44.51.658,Memory and Syntax,2023.2.3,MacIntel,30.12048193,,,,,283.6554,285.6541,,0,285.6541,286.7541,o,1,1.0673,,286.7541,286.764,,286.764,286.764,,0,103,103,103,1,cvmt/test_items/t104.jpeg,o,,,,,,,,,,,,,,,,,,,,,,,,,,,,
,,109755,085,1,2024-03-05_23h44.51.658,Memory and Syntax,2023.2.3,MacIntel,30.12048193,,,,,286.7643,288.7541,n,1,288.7543,288.7563,,0,,,288.7563,288.7567,,288.7567,288.7568,,0,104,104,104,1,cvmt/test_items/t105.jpeg,n,0.9958,,,,,,,,,,,,,,,,,,,,,,,,,,,
,,109755,085,1,2024-03-05_23h44.51.658,Memory and Syntax,2023.2.3,MacIntel,30.12048193,,,,,288.7571,290.7541,o,1,290.7542,290.7544,,0,,,290.7545,290.755,,290.755,290.7552,,0,105,105,105,1,cvmt/test_items/t106.jpeg,o,1.1365,,,,,,,,,,,,,,,,,,,,,,,,,,,
,,109755,085,1,2024-03-05_23h44.51.658,Memory and Syntax,2023.2.3,MacIntel,30.12048193,,,,,290.7554,292.7539,o,1,292.754,292.7542,,0,,,292.7543,292.7547,,292.7547,292.7547,,0,106,106,106,1,cvmt/test_items/t107.jpeg,o,0.628,,,,,,,,,,,,,,,,,,,,,,,,,,,
,,109755,085,1,2024-03-05_23h44.51.658,Memory and Syntax,2023.2.3,MacIntel,30.12048193,,,,,292.755,294.754,o,1,294.7541,294.7544,,0,,,294.7544,294.755,,294.755,294.755,,0,107,107,107,1,cvmt/test_items/t108.jpeg,o,0.5607,,,,,,,,,,,,,,,,,,,,,,,,,,,
,,109755,085,1,2024-03-05_23h44.51.658,Memory and Syntax,2023.2.3,MacIntel,30.12048193,,,,,294.7554,296.7541,o,1,296.7541,296.7544,,0,,,296.7544,296.7549,,296.755,296.755,,0,108,108,108,1,cvmt/test_items/t109.jpeg,o,0.5623,,,,,,,,,,,,,,,,,,,,,,,,,,,
,,109755,085,1,2024-03-05_23h44.51.658,Memory and Syntax,2023.2.3,MacIntel,30.12048193,,,,,296.7554,298.7541,o,1,298.7541,298.7544,,0,,,298.7544,298.7549,,298.7549,298.7551,,0,109,109,109,1,cvmt/test_items/t110.jpeg,o,0.7094,,,,,,,,,,,,,,,,,,,,,,,,,,,
,,109755,085,1,2024-03-05_23h44.51.658,Memory and Syntax,2023.2.3,MacIntel,30.12048193,,,,,298.7555,300.7541,o,1,300.7542,300.7544,,0,,,300.7545,300.7551,,300.7552,300.7553,,0,110,110,110,1,cvmt/test_items/t111.jpeg,o,0.4693,,,,,,,,,,,,,,,,,,,,,,,,,,,
,,109755,085,1,2024-03-05_23h44.51.658,Memory and Syntax,2023.2.3,MacIntel,30.12048193,,,,,300.7557,302.754,o,1,302.7541,302.7543,,0,,,302.7543,302.755,,302.755,302.7551,,0,111,111,111,1,cvmt/test_items/t112.jpeg,o,0.5477,,,,,,,,,,,,,,,,,,,,,,,,,,,
,,109755,085,1,2024-03-05_23h44.51.658,Memory and Syntax,2023.2.3,MacIntel,30.12048193,,,,,302.7553,304.754,n,1,304.7541,304.7543,,0,,,304.7543,304.7549,,304.7549,304.755,,0,112,112,112,1,cvmt/test_items/t113.jpeg,n,0.664,,,,,,,,,,,,,,,,,,,,,,,,,,,
,,109755,085,1,2024-03-05_23h44.51.658,Memory and Syntax,2023.2.3,MacIntel,30.12048193,,,,,304.7553,306.7539,o,1,306.7541,306.7543,,0,,,306.7543,306.7549,,306.7549,306.755,,0,113,113,113,1,cvmt/test_items/t114.jpeg,o,0.9018,,,,,,,,,,,,,,,,,,,,,,,,,,,
,,109755,085,1,2024-03-05_23h44.51.658,Memory and Syntax,2023.2.3,MacIntel,30.12048193,,,,,306.7554,308.754,o,1,308.754,308.7543,,0,,,308.7543,308.7549,,308.7549,308.755,,0,114,114,114,1,cvmt/test_items/t115.jpeg,o,0.532,,,,,,,,,,,,,,,,,,,,,,,,,,,
,,109755,085,1,2024-03-05_23h44.51.658,Memory and Syntax,2023.2.3,MacIntel,30.12048193,,,,,308.7553,310.754,o,1,310.7541,310.7544,,0,,,310.7544,310.755,,310.7551,310.7551,,0,115,115,115,1,cvmt/test_items/t116.jpeg,o,0.5755,,,,,,,,,,,,,,,,,,,,,,,,,,,
,,109755,085,1,2024-03-05_23h44.51.658,Memory and Syntax,2023.2.3,MacIntel,30.12048193,,,,,310.7556,312.7541,o,1,312.7541,312.7543,,0,,,312.7544,312.7549,,312.755,312.7551,,0,116,116,116,1,cvmt/test_items/t117.jpeg,o,0.6772,,,,,,,,,,,,,,,,,,,,,,,,,,,
,,109755,085,1,2024-03-05_23h44.51.658,Memory and Syntax,2023.2.3,MacIntel,30.12048193,,,,,312.7554,314.754,o,1,314.754,314.7543,,0,,,314.7543,314.7548,,314.7549,314.7551,,0,117,117,117,1,cvmt/test_items/t118.jpeg,o,0.548,,,,,,,,,,,,,,,,,,,,,,,,,,,
,,109755,085,1,2024-03-05_23h44.51.658,Memory and Syntax,2023.2.3,MacIntel,30.12048193,,,,,314.7555,316.754,o,1,316.7541,316.7543,,0,,,316.7543,316.7549,,316.7549,316.7549,,0,118,118,118,1,cvmt/test_items/t119.jpeg,o,0.4942,,,,,,,,,,,,,,,,,,,,,,,,,,,
,,109755,085,1,2024-03-05_23h44.51.658,Memory and Syntax,2023.2.3,MacIntel,30.12048193,,,,,316.7553,318.7539,o,1,318.754,318.7543,,0,,,318.7543,318.7549,,318.7549,318.755,,0,119,119,119,1,cvmt/test_items/t120.jpeg,o,0.8904,,,,,,,,,,,,,,,,,,,,,,,,,,,
,,109755,085,1,2024-03-05_23h44.51.658,Memory and Syntax,2023.2.3,MacIntel,30.12048193,,,,,318.7553,320.7532,o,1,320.7532,320.7535,,0,,,320.7535,320.7538,,320.7538,320.7539,,0,120,120,120,1,cvmt/test_items/t121.jpeg,o,0.4119,,,,,,,,,,,,,,,,,,,,,,,,,,,
,,109755,085,1,2024-03-05_23h44.51.658,Memory and Syntax,2023.2.3,MacIntel,30.12048193,,,,,320.754,322.7539,o,1,322.754,322.7543,,0,,,322.7543,322.7547,,322.7548,322.7549,,0,121,121,121,1,cvmt/test_items/t122.jpeg,o,1.4499,,,,,,,,,,,,,,,,,,,,,,,,,,,
,,109755,085,1,2024-03-05_23h44.51.658,Memory and Syntax,2023.2.3,MacIntel,30.12048193,,,,,322.7553,324.7539,o,0,324.754,324.7542,,0,,,324.7543,324.7549,,324.7549,324.7549,,0,122,122,122,1,cvmt/test_items/t123.jpeg,n,0.5452,,,,,,,,,,,,,,,,,,,,,,,,,,,
,,109755,085,1,2024-03-05_23h44.51.658,Memory and Syntax,2023.2.3,MacIntel,30.12048193,,,,,324.7553,326.754,,0,326.7541,326.8205,n,0,0.0476,,326.8206,326.8212,,326.8213,326.8214,,0,123,123,123,1,cvmt/test_items/t124.jpeg,o,,,,,,,,,,,,,,,,,,,,,,,,,,,,
,,109755,085,1,2024-03-05_23h44.51.658,Memory and Syntax,2023.2.3,MacIntel,30.12048193,,,,,326.8217,328.8203,,0,328.8204,331.7206,n,0,2.8953,,331.7207,331.7305,,331.7305,331.7306,,0,124,124,124,1,cvmt/test_items/t125.jpeg,o,,,,,,,,,,,,,,,,,,,,,,,,,,,,
,,109755,085,1,2024-03-05_23h44.51.658,Memory and Syntax,2023.2.3,MacIntel,30.12048193,,,,,331.7307,333.7204,o,1,333.7204,333.7224,,0,,,333.7225,333.7229,,333.7229,333.7229,,0,125,125,125,1,cvmt/test_items/t126.jpeg,o,1.5115,,,,,,,,,,,,,,,,,,,,,,,,,,,
,,109755,085,1,2024-03-05_23h44.51.658,Memory and Syntax,2023.2.3,MacIntel,30.12048193,,,,,333.7232,335.7207,,0,335.7208,337.3873,n,0,1.649,,337.3873,337.3973,,337.3973,337.3973,,0,126,126,126,1,cvmt/test_items/t127.jpeg,o,,,,,,,,,,,,,,,,,,,,,,,,,,,,
,,109755,085,1,2024-03-05_23h44.51.658,Memory and Syntax,2023.2.3,MacIntel,30.12048193,,,,,337.3975,339.3871,,0,339.3872,341.1202,n,0,1.7208,,341.1203,341.1314,,341.1315,341.1315,,0,127,127,127,1,cvmt/test_items/t128.jpeg,o,,,,,,,,,,,,,,,,,,,,,,,,,,,,
,,109755,085,1,2024-03-05_23h44.51.658,Memory and Syntax,2023.2.3,MacIntel,30.12048193,,,,,341.1317,343.1206,,0,343.1207,343.9206,o,1,0.7647,,343.9206,343.9303,,343.9303,343.9304,,0,128,128,128,1,cvmt/test_items/t129.jpeg,o,,,,,,,,,,,,,,,,,,,,,,,,,,,,
,,109755,085,1,2024-03-05_23h44.51.658,Memory and Syntax,2023.2.3,MacIntel,30.12048193,,,,,343.9306,345.9205,,0,345.9206,368.5537,o,1,22.6002,,368.5538,368.5667,,368.5667,368.5667,,0,129,129,129,1,cvmt/test_items/t130.jpeg,o,,,,,,,,,,,,,,,,,,,,,,,,,,,,
,,109755,085,1,2024-03-05_23h44.51.658,Memory and Syntax,2023.2.3,MacIntel,30.12048193,,,,,368.5669,370.5537,,0,370.5538,372.4538,n,1,1.8638,,372.4538,372.4545,,372.4545,372.4547,,0,130,130,130,1,cvmt/test_items/t131.jpeg,n,,,,,,,,,,,,,,,,,,,,,,,,,,,,
,,109755,085,1,2024-03-05_23h44.51.658,Memory and Syntax,2023.2.3,MacIntel,30.12048193,,,,,372.4551,374.4536,o,1,374.4537,374.4553,,0,,,374.4554,374.4558,,374.4558,374.4558,,0,131,131,131,1,cvmt/test_items/t132.jpeg,o,0.7612,,,,,,,,,,,,,,,,,,,,,,,,,,,
,,109755,085,1,2024-03-05_23h44.51.658,Memory and Syntax,2023.2.3,MacIntel,30.12048193,,,,,374.4561,376.4538,o,1,376.4538,376.4541,,0,,,376.4541,376.4547,,376.4547,376.4547,,0,132,132,132,1,cvmt/test_items/t133.jpeg,o,1.0359,,,,,,,,,,,,,,,,,,,,,,,,,,,
,,109755,085,1,2024-03-05_23h44.51.658,Memory and Syntax,2023.2.3,MacIntel,30.12048193,,,,,376.4551,378.4537,o,1,378.4537,378.454,,0,,,378.454,378.4546,,378.4546,378.4547,,0,133,133,133,1,cvmt/test_items/t134.jpeg,o,1.2496,,,,,,,,,,,,,,,,,,,,,,,,,,,
,,109755,085,1,2024-03-05_23h44.51.658,Memory and Syntax,2023.2.3,MacIntel,30.12048193,,,,,378.455,380.4536,o,1,380.4538,380.454,,0,,,380.454,380.4545,,380.4545,380.4547,,0,134,134,134,1,cvmt/test_items/t135.jpeg,o,1.518,,,,,,,,,,,,,,,,,,,,,,,,,,,
,,109755,085,1,2024-03-05_23h44.51.658,Memory and Syntax,2023.2.3,MacIntel,30.12048193,,,,,,,,,,,,,,,,,,,,,,,,,,,,,,,,,,380.4555,380.4558,0.0003,380.4645,391.8217,space,10.6358,,391.8315,397.3223,1.9,5.4759,0,0,0,0,1,1,1,WOV,8B,Practiced the virtuoso many pieces.
,,109755,085,1,2024-03-05_23h44.51.658,Memory and Syntax,2023.2.3,MacIntel,30.12048193,,,,,,,,,,,,,,,,,,,,,,,,,,,,,,,,,,,,,,,,,,397.323,400.2536,6.5,2.9125,0,1,1,1,1,1,2,AS,6A,The rickety old boat sank.
,,109755,085,1,2024-03-05_23h44.51.658,Memory and Syntax,2023.2.3,MacIntel,30.12048193,,,,,,,,,,,,,,,,,,,,,,,,,,,,,,,,,,,,,,,,,,400.2541,402.9202,4.7,2.658,0,2,2,2,1,1,3,WO,6A,The waiter set the table promptly.
,,109755,085,1,2024-03-05_23h44.51.658,Memory and Syntax,2023.2.3,MacIntel,30.12048193,,,,,,,,,,,,,,,,,,,,,,,,,,,,,,,,,,,,,,,,,,402.9205,405.7534,1.9,2.8239,0,3,3,3,1,1,4,control,12B,They anticipate that everybody you do will contact Megan.
,,109755,085,1,2024-03-05_23h44.51.658,Memory and Syntax,2023.2.3,MacIntel,30.12048193,,,,,,,,,,,,,,,,,,,,,,,,,,,,,,,,,,,,,,,,,,405.7539,408.2203,2.8,2.4512,0,4,4,4,1,1,5,ASV,11B,The cat moved himself away.
,,109755,085,1,2024-03-05_23h44.51.658,Memory and Syntax,2023.2.3,MacIntel,30.12048193,,,,,,,,,,,,,,,,,,,,,,,,,,,,,,,,,,,,,,,,,,408.2208,410.6869,1.9,2.4522,0,5,5,5,1,1,6,ASV,7B,She laughed herself at the dog.
,,109755,085,1,2024-03-05_23h44.51.658,Memory and Syntax,2023.2.3,MacIntel,30.12048193,,,,,,,,,,,,,,,,,,,,,,,,,,,,,,,,,,,,,,,,,,410.6873,413.3535,6.5,2.6392,0,6,6,6,1,1,7,AS,5A,The professor cried about the article.
,,109755,085,1,2024-03-05_23h44.51.658,Memory and Syntax,2023.2.3,MacIntel,30.12048193,,,,,,,,,,,,,,,,,,,,,,,,,,,,,,,,,,,,,,,,,,413.3541,416.7537,5.5,3.3709,0,7,7,7,1,1,8,WO,5A,My sibling expected a good grade.
,,109755,085,1,2024-03-05_23h44.51.658,Memory and Syntax,2023.2.3,MacIntel,30.12048193,,,,,,,,,,,,,,,,,,,,,,,,,,,,,,,,,,,,,,,,,,416.7543,419.3202,2.9,2.5467,0,8,8,8,1,1,9,filler,1A,There has been a man considered violent.
,,109755,085,1,2024-03-05_23h44.51.658,Memory and Syntax,2023.2.3,MacIntel,30.12048193,,,,,,,,,,,,,,,,,,,,,,,,,,,,,,,,,,,,,,,,,,419.3209,422.12,6.9,2.7938,0,9,9,9,1,1,10,AS,2A,Taylor subscribed to the channel.
,,109755,085,1,2024-03-05_23h44.51.658,Memory and Syntax,2023.2.3,MacIntel,30.12048193,,,,,,,,,,,,,,,,,,,,,,,,,,,,,,,,,,,,,,,,,,422.1205,424.7535,2.3,2.6159,0,10,10,10,1,1,11,control,10B,There might fossils seem to be several miles underground.
,,109755,085,1,2024-03-05_23h44.51.658,Memory and Syntax,2023.2.3,MacIntel,30.12048193,,,,,,,,,,,,,,,,,,,,,,,,,,,,,,,,,,,,,,,,,,424.754,427.3202,2.6,2.547,0,11,11,11,1,1,12,ASV,8B,Esperanza sighed herself at the desk.
,,109755,085,1,2024-03-05_23h44.51.658,Memory and Syntax,2023.2.3,MacIntel,30.12048193,,,,,,,,,,,,,,,,,,,,,,,,,,,,,,,,,,,,,,,,,,427.3206,429.8533,1.3,2.5212,0,12,12,12,1,1,13,WOV,9B,Read we five pages each night.
,,109755,085,1,2024-03-05_23h44.51.658,Memory and Syntax,2023.2.3,MacIntel,30.12048193,,,,,,,,,,,,,,,,,,,,,,,,,,,,,,,,,,,,,,,,,,429.8537,432.1871,1.3,2.3036,0,13,13,13,1,1,14,WOV,7B,Frightened the eerie sound Seth.
,,109755,085,1,2024-03-05_23h44.51.658,Memory and Syntax,2023.2.3,MacIntel,30.12048193,,,,,,,,,,,,,,,,,,,,,,,,,,,,,,,,,,,,,,,,,,432.1878,434.6199,4.5,2.4283,0,14,14,14,1,1,15,filler,2A,"Arty is sick, and Mark is too."
,,109755,085,1,2024-03-05_23h44.51.658,Memory and Syntax,2023.2.3,MacIntel,30.12048193,,,,,,,,,,,,,,,,,,,,,,,,,,,,,,,,,,,,,,,,,,434.6203,437.0866,4.5,2.4636,0,15,15,15,1,1,16,ASV,9B,The prime minister confessed herself to bribery.
,,109755,085,1,2024-03-05_23h44.51.658,Memory and Syntax,2023.2.3,MacIntel,30.12048193,,,,,,,,,,,,,,,,,,,,,,,,,,,,,,,,,,,,,,,,,,437.0871,439.753,3,2.6518,0,16,16,16,1,1,17,control,7B,Olivia told Gregory when to exonerate herself.
,,109755,085,1,2024-03-05_23h44.51.658,Memory and Syntax,2023.2.3,MacIntel,30.12048193,,,,,,,,,,,,,,,,,,,,,,,,,,,,,,,,,,,,,,,,,,439.7534,442.1866,3.6,2.4208,0,17,17,17,1,1,18,control,11B,There are likely students to be in the library.
,,109755,085,1,2024-03-05_23h44.51.658,Memory and Syntax,2023.2.3,MacIntel,30.12048193,,,,,,,,,,,,,,,,,,,,,,,,,,,,,,,,,,,,,,,,,,442.1871,444.5534,5.6,2.3461,0,18,18,18,1,1,19,filler,5A,I told Mandy who would win the election.
,,109755,085,1,2024-03-05_23h44.51.658,Memory and Syntax,2023.2.3,MacIntel,30.12048193,,,,,,,,,,,,,,,,,,,,,,,,,,,,,,,,,,,,,,,,,,444.5538,447.0201,2,2.4464,0,19,19,19,1,1,20,control,9B,We consider there three problems.
,,109755,085,1,2024-03-05_23h44.51.658,Memory and Syntax,2023.2.3,MacIntel,30.12048193,,,,,,,,,,,,,,,,,,,,,,,,,,,,,,,,,,,,,,,,,,447.0205,449.686,1.1,2.6619,0,20,20,20,1,1,21,control,8B,She called Victor and yelled at.
,,109755,085,1,2024-03-05_23h44.51.658,Memory and Syntax,2023.2.3,MacIntel,30.12048193,,,,,,,,,,,,,,,,,,,,,,,,,,,,,,,,,,,,,,,,,,449.6863,452.0867,5.6,2.3923,0,21,21,21,1,1,22,WO,4A,The bully pushed every student.
,,109755,085,1,2024-03-05_23h44.51.658,Memory and Syntax,2023.2.3,MacIntel,30.12048193,,,,,,,,,,,,,,,,,,,,,,,,,,,,,,,,,,,,,,,,,,452.0871,454.5868,6.9,2.4703,0,22,22,22,1,1,23,WO,3A,Miguel baked delicious cupcakes.
,,109755,085,1,2024-03-05_23h44.51.658,Memory and Syntax,2023.2.3,MacIntel,30.12048193,,,,,,,,,,,,,,,,,,,,,,,,,,,,,,,,,,,,,,,,,,454.5874,456.9534,6.6,2.3454,0,23,23,23,1,1,24,WO,1A,Abby answered the question.
,,109755,085,1,2024-03-05_23h44.51.658,Memory and Syntax,2023.2.3,MacIntel,30.12048193,,,,,,,,,,,,,,,,,,,,,,,,,,,,,,,,,,,,,,,,,,456.9539,459.2866,6.7,2.3178,0,24,24,24,1,1,25,filler,3A,Brittany attempted to touch the porcupine.
,,109755,085,1,2024-03-05_23h44.51.658,Memory and Syntax,2023.2.3,MacIntel,30.12048193,,,,,,,,,,,,,,,,,,,,,,,,,,,,,,,,,,,,,,,,,,459.287,461.7201,5.1,2.4131,0,25,25,25,1,1,26,AS,3A,Gracie stayed by the window.
,,109755,085,1,2024-03-05_23h44.51.658,Memory and Syntax,2023.2.3,MacIntel,30.12048193,,,,,,,,,,,,,,,,,,,,,,,,,,,,,,,,,,,,,,,,,,461.7208,464.0533,1.8,2.317,0,26,26,26,1,1,27,WOV,11B,Wrote she her boyfriend a poem.
,,109755,085,1,2024-03-05_23h44.51.658,Memory and Syntax,2023.2.3,MacIntel,30.12048193,,,,,,,,,,,,,,,,,,,,,,,,,,,,,,,,,,,,,,,,,,464.0538,467.2206,1.1,3.1643,0,27,27,27,1,1,28,WOV,12B,Watched Lily a movie.
,,109755,085,1,2024-03-05_23h44.51.658,Memory and Syntax,2023.2.3,MacIntel,30.12048193,,,,,,,,,,,,,,,,,,,,,,,,,,,,,,,,,,,,,,,,,,467.2209,470.3533,2.3,3.1034,0,28,28,28,1,1,29,WO,2A,Jackie won the close race.
,,109755,085,1,2024-03-05_23h44.51.658,Memory and Syntax,2023.2.3,MacIntel,30.12048193,,,,,,,,,,,,,,,,,,,,,,,,,,,,,,,,,,,,,,,,,,470.3537,472.9866,6.3,2.6033,0,29,29,29,1,1,30,AS,4A,Tomas drank from the water pitcher.
,,109755,085,1,2024-03-05_23h44.51.658,Memory and Syntax,2023.2.3,MacIntel,30.12048193,,,,,,,,,,,,,,,,,,,,,,,,,,,,,,,,,,,,,,,,,,472.9872,475.3866,1.3,2.3801,0,30,30,30,1,1,31,WOV,10B,Kissed Kareem his boyfriend.
,,109755,085,1,2024-03-05_23h44.51.658,Memory and Syntax,2023.2.3,MacIntel,30.12048193,,,,,,,,,,,,,,,,,,,,,,,,,,,,,,,,,,,,,,,,,,475.3871,478.2864,2.1,2.8954,0,31,31,31,1,1,32,ASV,10B,The children quieted themselves.
,,109755,085,1,2024-03-05_23h44.51.658,Memory and Syntax,2023.2.3,MacIntel,30.12048193,,,,,,,,,,,,,,,,,,,,,,,,,,,,,,,,,,,,,,,,,,478.2868,480.9199,6.3,2.6139,0,32,32,32,1,1,33,AS,1A,They fidgeted in their chairs.
,,109755,085,1,2024-03-05_23h44.51.658,Memory and Syntax,2023.2.3,MacIntel,30.12048193,,,,,,,,,,,,,,,,,,,,,,,,,,,,,,,,,,,,,,,,,,480.9204,483.5197,2.2,2.594,0,33,33,33,1,1,34,filler,4A,It seems to him that Kim solved the problem.
,,109755,085,1,2024-03-05_23h44.51.658,Memory and Syntax,2023.2.3,MacIntel,30.12048193,,,,,,,,,,,,,,,,,,,,,,,,,,,,,,,,,,,,,,,,,,483.5201,486.3198,2.8,2.7933,0,34,34,34,1,1,35,ASV,12B,The swimmers shaved themselves.