load.started,load.stopped,Sona ID,Participant ID,Session,date,expName,psychopyVersion,OS,frameRate,cvmtInstr.started,cvmtInstr.stopped,cvmtTaskInstr.started,cvmtTaskInstr.stopped,presentDesign.started,presentDesign.stopped,cvmt_key_resp.keys,cvmt_key_resp.corr,cvmtNoResp.started,cvmtNoResp.stopped,cvmt_key_resp2.keys,cvmt_key_resp2.corr,cvmt_key_resp2.rt,cvmt_key_resp2.duration,cvmtSampleFB.started,cvmtSampleFB.stopped,key_resp_15.keys,cvmtSampleFBFinal.started,cvmtSampleFBFinal.stopped,cvmt_final_samp_fb_key_resp.keys,cvmtTrials.thisRepN,cvmtTrials.thisTrialN,cvmtTrials.thisN,cvmtTrials.thisIndex,cvmtTrials.ran,cvmt_design,old_or_new,cvmt_key_resp.rt,cvmt_key_resp.duration,key_resp_15.rt,key_resp_15.duration,cvmt_final_samp_fb_key_resp.rt,cvmt_final_samp_fb_key_resp.duration,cvmtDelay.started,cvmtDelay.stopped,cvmt timer,engAJT_instr.started,engAJT_instr.stopped,start_ajt.keys,start_ajt.rt,start_ajt.duration,engAJT.started,engAJT.stopped,acceptability.response,acceptability.rt,engAJT_trials.thisRepN,engAJT_trials.thisTrialN,engAJT_trials.thisN,engAJT_trials.thisIndex,engAJT_trials.ran,ajt_list,list_position,condition,item,testSent
0,0.194,110563,171,1,2024-03-13_00h22.58.745,Memory and Syntax,2023.2.3,MacIntel,71.42857143,,,,,,,,,,,,,,,,,,,,,,,,,,,,,,,,,,,,,,,,,,,,,,,,,,,,,,,
,,110563,171,1,2024-03-13_00h22.58.745,Memory and Syntax,2023.2.3,MacIntel,71.42857143,0.211,2.663,2.668,4.747,4.776,6.749,,0,6.749,30.913,n,1,24.124,,30.913,30.916,,30.916,30.916,,0,0,0,0,1,cvmt/sample/s1.jpg,n,,,,,,,,,,,,,,,,,,,,,,,,,,,,
,,110563,171,1,2024-03-13_00h22.58.745,Memory and Syntax,2023.2.3,MacIntel,71.42857143,,,,,30.917,32.913,n,1,32.913,32.914,,0,,,32.914,32.914,,32.914,32.914,,0,1,1,1,1,cvmt/sample/s2.jpg,n,0.161,,,,,,,,,,,,,,,,,,,,,,,,,,,
,,110563,171,1,2024-03-13_00h22.58.745,Memory and Syntax,2023.2.3,MacIntel,71.42857143,,,,,32.915,34.914,,0,34.914,36.415,o,1,1.491,,36.415,36.416,,36.416,36.416,,0,2,2,2,1,cvmt/sample/s3.jpg,o,,,,,,,,,,,,,,,,,,,,,,,,,,,,
,,110563,171,1,2024-03-13_00h22.58.745,Memory and Syntax,2023.2.3,MacIntel,71.42857143,,,,,36.416,38.416,o,0,38.416,38.417,,0,,,38.417,52.897,c,52.897,52.898,,0,3,3,3,1,cvmt/sample/s4.jpg,n,1.716,,14.45,,,,,,,,,,,,,,,,,,,,,,,,,
,,110563,171,1,2024-03-13_00h22.58.745,Memory and Syntax,2023.2.3,MacIntel,71.42857143,,,,,52.898,54.893,n,1,54.893,54.893,,0,,,54.893,54.897,,54.897,54.897,,0,4,4,4,1,cvmt/sample/s5.jpg,n,1.067,,,,,,,,,,,,,,,,,,,,,,,,,,,
,,110563,171,1,2024-03-13_00h22.58.745,Memory and Syntax,2023.2.3,MacIntel,71.42857143,,,,,54.898,56.894,n,1,56.894,56.894,,0,,,56.894,56.895,,56.895,56.895,,0,5,5,5,1,cvmt/sample/s6.jpg,n,0.735,,,,,,,,,,,,,,,,,,,,,,,,,,,
,,110563,171,1,2024-03-13_00h22.58.745,Memory and Syntax,2023.2.3,MacIntel,71.42857143,,,,,56.895,58.895,o,1,58.895,58.895,,0,,,58.895,58.896,,58.896,58.896,,0,6,6,6,1,cvmt/sample/s7.jpg,o,1.212,,,,,,,,,,,,,,,,,,,,,,,,,,,
,,110563,171,1,2024-03-13_00h22.58.745,Memory and Syntax,2023.2.3,MacIntel,71.42857143,,,,,58.896,60.896,n,1,60.896,60.896,,0,,,60.896,60.897,,60.897,60.897,,0,7,7,7,1,cvmt/sample/s8.jpg,n,1.021,,,,,,,,,,,,,,,,,,,,,,,,,,,
,,110563,171,1,2024-03-13_00h22.58.745,Memory and Syntax,2023.2.3,MacIntel,71.42857143,,,,,60.897,62.897,n,1,62.897,62.898,,0,,,62.898,62.898,,62.898,62.898,,0,8,8,8,1,cvmt/sample/s9.jpg,n,0.712,,,,,,,,,,,,,,,,,,,,,,,,,,,
,,110563,171,1,2024-03-13_00h22.58.745,Memory and Syntax,2023.2.3,MacIntel,71.42857143,,,,,62.898,64.898,n,1,64.898,64.899,,0,,,64.899,64.899,,64.899,64.899,,0,9,9,9,1,cvmt/sample/s10.jpg,n,0.763,,,,,,,,,,,,,,,,,,,,,,,,,,,
,,110563,171,1,2024-03-13_00h22.58.745,Memory and Syntax,2023.2.3,MacIntel,71.42857143,,,,,64.9,66.899,n,0,66.899,66.9,,0,,,66.9,71.824,c,71.824,81.641,r,0,10,10,10,1,cvmt/sample/s11.jpg,o,0.613,,4.902,,9.756,,,,,,,,,,,,,,,,,,,,,,,
,,110563,171,1,2024-03-13_00h22.58.745,Memory and Syntax,2023.2.3,MacIntel,71.42857143,,,,,81.642,83.642,n,1,83.642,83.643,,0,,,83.643,83.646,,83.646,83.648,,1,0,11,0,1,cvmt/sample/s1.jpg,n,1.429,,,,,,,,,,,,,,,,,,,,,,,,,,,
,,110563,171,1,2024-03-13_00h22.58.745,Memory and Syntax,2023.2.3,MacIntel,71.42857143,,,,,83.648,85.644,n,1,85.644,85.644,,0,,,85.644,85.644,,85.644,85.645,,1,1,12,1,1,cvmt/sample/s2.jpg,n,0.731,,,,,,,,,,,,,,,,,,,,,,,,,,,
,,110563,171,1,2024-03-13_00h22.58.745,Memory and Syntax,2023.2.3,MacIntel,71.42857143,,,,,85.645,87.645,o,1,87.645,87.645,,0,,,87.646,87.646,,87.646,87.647,,1,2,13,2,1,cvmt/sample/s3.jpg,o,1.354,,,,,,,,,,,,,,,,,,,,,,,,,,,
,,110563,171,1,2024-03-13_00h22.58.745,Memory and Syntax,2023.2.3,MacIntel,71.42857143,,,,,87.647,89.646,n,1,89.646,89.647,,0,,,89.647,89.647,,89.647,89.648,,1,3,14,3,1,cvmt/sample/s4.jpg,n,0.561,,,,,,,,,,,,,,,,,,,,,,,,,,,
,,110563,171,1,2024-03-13_00h22.58.745,Memory and Syntax,2023.2.3,MacIntel,71.42857143,,,,,89.648,91.647,n,1,91.647,91.647,,0,,,91.648,91.648,,91.648,91.648,,1,4,15,4,1,cvmt/sample/s5.jpg,n,0.544,,,,,,,,,,,,,,,,,,,,,,,,,,,
,,110563,171,1,2024-03-13_00h22.58.745,Memory and Syntax,2023.2.3,MacIntel,71.42857143,,,,,91.649,93.648,n,1,93.648,93.649,,0,,,93.649,93.649,,93.649,93.649,,1,5,16,5,1,cvmt/sample/s6.jpg,n,0.827,,,,,,,,,,,,,,,,,,,,,,,,,,,
,,110563,171,1,2024-03-13_00h22.58.745,Memory and Syntax,2023.2.3,MacIntel,71.42857143,,,,,93.649,95.649,o,1,95.649,95.65,,0,,,95.65,95.65,,95.65,95.65,,1,6,17,6,1,cvmt/sample/s7.jpg,o,0.445,,,,,,,,,,,,,,,,,,,,,,,,,,,
,,110563,171,1,2024-03-13_00h22.58.745,Memory and Syntax,2023.2.3,MacIntel,71.42857143,,,,,95.65,97.65,o,0,97.651,97.651,,0,,,97.651,101.792,c,101.792,101.793,,1,7,18,7,1,cvmt/sample/s8.jpg,n,1.288,,4.117,,,,,,,,,,,,,,,,,,,,,,,,,
,,110563,171,1,2024-03-13_00h22.58.745,Memory and Syntax,2023.2.3,MacIntel,71.42857143,,,,,101.793,103.787,n,1,103.787,103.788,,0,,,103.788,103.792,,103.792,103.792,,1,8,19,8,1,cvmt/sample/s9.jpg,n,1.215,,,,,,,,,,,,,,,,,,,,,,,,,,,
,,110563,171,1,2024-03-13_00h22.58.745,Memory and Syntax,2023.2.3,MacIntel,71.42857143,,,,,103.792,105.789,n,1,105.789,105.789,,0,,,105.789,105.789,,105.789,105.789,,1,9,20,9,1,cvmt/sample/s10.jpg,n,1.35,,,,,,,,,,,,,,,,,,,,,,,,,,,
,,110563,171,1,2024-03-13_00h22.58.745,Memory and Syntax,2023.2.3,MacIntel,71.42857143,,,,,105.79,107.79,o,1,107.79,107.79,,0,,,107.79,107.79,,107.79,116.017,r,1,10,21,10,1,cvmt/sample/s11.jpg,o,0.929,,,,8.183,,,,,,,,,,,,,,,,,,,,,,,
,,110563,171,1,2024-03-13_00h22.58.745,Memory and Syntax,2023.2.3,MacIntel,71.42857143,,,,,116.018,118.012,n,1,118.012,118.013,,0,,,118.013,118.014,,118.014,118.017,,2,0,22,0,1,cvmt/sample/s1.jpg,n,1.189,,,,,,,,,,,,,,,,,,,,,,,,,,,
,,110563,171,1,2024-03-13_00h22.58.745,Memory and Syntax,2023.2.3,MacIntel,71.42857143,,,,,118.018,120.013,n,1,120.013,120.014,,0,,,120.014,120.014,,120.014,120.014,,2,1,23,1,1,cvmt/sample/s2.jpg,n,0.39,,,,,,,,,,,,,,,,,,,,,,,,,,,
,,110563,171,1,2024-03-13_00h22.58.745,Memory and Syntax,2023.2.3,MacIntel,71.42857143,,,,,120.015,122.015,o,1,122.015,122.015,,0,,,122.015,122.016,,122.016,122.016,,2,2,24,2,1,cvmt/sample/s3.jpg,o,1.67,,,,,,,,,,,,,,,,,,,,,,,,,,,
,,110563,171,1,2024-03-13_00h22.58.745,Memory and Syntax,2023.2.3,MacIntel,71.42857143,,,,,122.016,124.016,n,1,124.016,124.016,,0,,,124.016,124.016,,124.016,124.016,,2,3,25,3,1,cvmt/sample/s4.jpg,n,0.695,,,,,,,,,,,,,,,,,,,,,,,,,,,
,,110563,171,1,2024-03-13_00h22.58.745,Memory and Syntax,2023.2.3,MacIntel,71.42857143,,,,,124.017,126.017,n,1,126.017,126.017,,0,,,126.017,126.018,,126.018,126.018,,2,4,26,4,1,cvmt/sample/s5.jpg,n,0.837,,,,,,,,,,,,,,,,,,,,,,,,,,,
,,110563,171,1,2024-03-13_00h22.58.745,Memory and Syntax,2023.2.3,MacIntel,71.42857143,,,,,126.018,128.018,n,1,128.018,128.018,,0,,,128.018,128.019,,128.019,128.019,,2,5,27,5,1,cvmt/sample/s6.jpg,n,0.345,,,,,,,,,,,,,,,,,,,,,,,,,,,
,,110563,171,1,2024-03-13_00h22.58.745,Memory and Syntax,2023.2.3,MacIntel,71.42857143,,,,,128.019,130.019,o,1,130.019,130.019,,0,,,130.019,130.02,,130.02,130.02,,2,6,28,6,1,cvmt/sample/s7.jpg,o,0.471,,,,,,,,,,,,,,,,,,,,,,,,,,,
,,110563,171,1,2024-03-13_00h22.58.745,Memory and Syntax,2023.2.3,MacIntel,71.42857143,,,,,130.02,132.02,,0,132.02,132.12,o,0,0.082,,132.12,135.712,c,135.712,135.712,,2,7,29,7,1,cvmt/sample/s8.jpg,n,,,3.556,,,,,,,,,,,,,,,,,,,,,,,,,
,,110563,171,1,2024-03-13_00h22.58.745,Memory and Syntax,2023.2.3,MacIntel,71.42857143,,,,,135.712,137.707,n,1,137.707,137.707,,0,,,137.707,137.71,,137.71,137.71,,2,8,30,8,1,cvmt/sample/s9.jpg,n,0.848,,,,,,,,,,,,,,,,,,,,,,,,,,,
,,110563,171,1,2024-03-13_00h22.58.745,Memory and Syntax,2023.2.3,MacIntel,71.42857143,,,,,137.711,139.708,n,1,139.708,139.708,,0,,,139.708,139.709,,139.709,139.709,,2,9,31,9,1,cvmt/sample/s10.jpg,n,0.692,,,,,,,,,,,,,,,,,,,,,,,,,,,
,,110563,171,1,2024-03-13_00h22.58.745,Memory and Syntax,2023.2.3,MacIntel,71.42857143,,,,,139.709,141.709,o,1,141.709,141.71,,0,,,141.71,141.71,,141.71,144.821,c,2,10,32,10,1,cvmt/sample/s11.jpg,o,0.537,,,,3.067,,,,,,,,,,,,,,,,,,,,,,,
,,110563,171,1,2024-03-13_00h22.58.745,Memory and Syntax,2023.2.3,MacIntel,71.42857143,,,144.823,151.137,151.149,153.149,n,1,153.15,153.15,,0,,,153.15,153.151,,153.151,153.154,,0,0,0,0,1,cvmt/test_items/t1.jpeg,n,1.095,,,,,,,,,,,,,,,,,,,,,,,,,,,
,,110563,171,1,2024-03-13_00h22.58.745,Memory and Syntax,2023.2.3,MacIntel,71.42857143,,,,,153.154,155.15,n,1,155.15,155.151,,0,,,155.151,155.151,,155.151,155.151,,0,1,1,1,1,cvmt/test_items/t2.jpeg,n,0.657,,,,,,,,,,,,,,,,,,,,,,,,,,,
,,110563,171,1,2024-03-13_00h22.58.745,Memory and Syntax,2023.2.3,MacIntel,71.42857143,,,,,155.152,157.152,n,0,157.152,157.152,,0,,,157.152,157.153,,157.153,157.153,,0,2,2,2,1,cvmt/test_items/t3.jpeg,o,0.525,,,,,,,,,,,,,,,,,,,,,,,,,,,
,,110563,171,1,2024-03-13_00h22.58.745,Memory and Syntax,2023.2.3,MacIntel,71.42857143,,,,,157.153,159.153,n,0,159.153,159.153,,0,,,159.153,159.153,,159.153,159.153,,0,3,3,3,1,cvmt/test_items/t4.jpeg,o,0.472,,,,,,,,,,,,,,,,,,,,,,,,,,,
,,110563,171,1,2024-03-13_00h22.58.745,Memory and Syntax,2023.2.3,MacIntel,71.42857143,,,,,159.154,161.154,n,0,161.154,161.154,,0,,,161.154,161.155,,161.155,161.155,,0,4,4,4,1,cvmt/test_items/t5.jpeg,o,0.573,,,,,,,,,,,,,,,,,,,,,,,,,,,
,,110563,171,1,2024-03-13_00h22.58.745,Memory and Syntax,2023.2.3,MacIntel,71.42857143,,,,,161.155,163.155,n,0,163.155,163.155,,0,,,163.155,163.156,,163.156,163.156,,0,5,5,5,1,cvmt/test_items/t6.jpeg,o,0.652,,,,,,,,,,,,,,,,,,,,,,,,,,,
,,110563,171,1,2024-03-13_00h22.58.745,Memory and Syntax,2023.2.3,MacIntel,71.42857143,,,,,163.156,165.156,n,0,165.156,165.156,,0,,,165.156,165.157,,165.157,165.157,,0,6,6,6,1,cvmt/test_items/t7.jpeg,o,0.559,,,,,,,,,,,,,,,,,,,,,,,,,,,
,,110563,171,1,2024-03-13_00h22.58.745,Memory and Syntax,2023.2.3,MacIntel,71.42857143,,,,,165.157,167.157,o,1,167.157,167.157,,0,,,167.157,167.158,,167.158,167.158,,0,7,7,7,1,cvmt/test_items/t8.jpeg,o,0.767,,,,,,,,,,,,,,,,,,,,,,,,,,,
,,110563,171,1,2024-03-13_00h22.58.745,Memory and Syntax,2023.2.3,MacIntel,71.42857143,,,,,167.158,169.159,n,0,169.159,169.159,,0,,,169.159,169.16,,169.16,169.16,,0,8,8,8,1,cvmt/test_items/t9.jpeg,o,0.668,,,,,,,,,,,,,,,,,,,,,,,,,,,
,,110563,171,1,2024-03-13_00h22.58.745,Memory and Syntax,2023.2.3,MacIntel,71.42857143,,,,,169.161,171.16,n,0,171.16,171.16,,0,,,171.16,171.16,,171.16,171.161,,0,9,9,9,1,cvmt/test_items/t10.jpeg,o,0.566,,,,,,,,,,,,,,,,,,,,,,,,,,,
,,110563,171,1,2024-03-13_00h22.58.745,Memory and Syntax,2023.2.3,MacIntel,71.42857143,,,,,171.161,173.161,n,1,173.161,173.161,,0,,,173.161,173.162,,173.162,173.162,,0,10,10,10,1,cvmt/test_items/t11.jpeg,n,0.821,,,,,,,,,,,,,,,,,,,,,,,,,,,
,,110563,171,1,2024-03-13_00h22.58.745,Memory and Syntax,2023.2.3,MacIntel,71.42857143,,,,,173.162,175.162,n,0,175.162,175.162,,0,,,175.162,175.163,,175.163,175.163,,0,11,11,11,1,cvmt/test_items/t12.jpeg,o,0.734,,,,,,,,,,,,,,,,,,,,,,,,,,,
,,110563,171,1,2024-03-13_00h22.58.745,Memory and Syntax,2023.2.3,MacIntel,71.42857143,,,,,175.163,177.163,n,0,177.163,177.163,,0,,,177.163,177.164,,177.164,177.164,,0,12,12,12,1,cvmt/test_items/t13.jpeg,o,1.131,,,,,,,,,,,,,,,,,,,,,,,,,,,
,,110563,171,1,2024-03-13_00h22.58.745,Memory and Syntax,2023.2.3,MacIntel,71.42857143,,,,,177.164,179.164,n,0,179.164,179.164,,0,,,179.164,179.165,,179.165,179.165,,0,13,13,13,1,cvmt/test_items/t14.jpeg,o,0.995,,,,,,,,,,,,,,,,,,,,,,,,,,,
,,110563,171,1,2024-03-13_00h22.58.745,Memory and Syntax,2023.2.3,MacIntel,71.42857143,,,,,179.165,181.166,o,1,181.166,181.166,,0,,,181.166,181.166,,181.166,181.166,,0,14,14,14,1,cvmt/test_items/t15.jpeg,o,0.839,,,,,,,,,,,,,,,,,,,,,,,,,,,
,,110563,171,1,2024-03-13_00h22.58.745,Memory and Syntax,2023.2.3,MacIntel,71.42857143,,,,,181.167,183.166,o,1,183.166,183.167,,0,,,183.167,183.167,,183.167,183.167,,0,15,15,15,1,cvmt/test_items/t16.jpeg,o,1.577,,,,,,,,,,,,,,,,,,,,,,,,,,,
,,110563,171,1,2024-03-13_00h22.58.745,Memory and Syntax,2023.2.3,MacIntel,71.42857143,,,,,183.167,185.168,n,0,185.168,185.168,,0,,,185.168,185.168,,185.168,185.168,,0,16,16,16,1,cvmt/test_items/t17.jpeg,o,1.059,,,,,,,,,,,,,,,,,,,,,,,,,,,
,,110563,171,1,2024-03-13_00h22.58.745,Memory and Syntax,2023.2.3,MacIntel,71.42857143,,,,,185.169,187.169,n,0,187.169,187.169,,0,,,187.17,187.17,,187.17,187.17,,0,17,17,17,1,cvmt/test_items/t18.jpeg,o,0.931,,,,,,,,,,,,,,,,,,,,,,,,,,,
,,110563,171,1,2024-03-13_00h22.58.745,Memory and Syntax,2023.2.3,MacIntel,71.42857143,,,,,187.171,189.17,n,1,189.17,189.17,,0,,,189.17,189.171,,189.171,189.171,,0,18,18,18,1,cvmt/test_items/t19.jpeg,n,0.87,,,,,,,,,,,,,,,,,,,,,,,,,,,
,,110563,171,1,2024-03-13_00h22.58.745,Memory and Syntax,2023.2.3,MacIntel,71.42857143,,,,,189.171,191.171,o,1,191.171,191.171,,0,,,191.171,191.172,,191.172,191.172,,0,19,19,19,1,cvmt/test_items/t20.jpeg,o,0.754,,,,,,,,,,,,,,,,,,,,,,,,,,,
,,110563,171,1,2024-03-13_00h22.58.745,Memory and Syntax,2023.2.3,MacIntel,71.42857143,,,,,191.172,193.172,n,0,193.172,193.172,,0,,,193.172,193.173,,193.173,193.173,,0,20,20,20,1,cvmt/test_items/t21.jpeg,o,1.078,,,,,,,,,,,,,,,,,,,,,,,,,,,
,,110563,171,1,2024-03-13_00h22.58.745,Memory and Syntax,2023.2.3,MacIntel,71.42857143,,,,,193.173,195.173,o,1,195.173,195.174,,0,,,195.174,195.174,,195.174,195.174,,0,21,21,21,1,cvmt/test_items/t22.jpeg,o,0.858,,,,,,,,,,,,,,,,,,,,,,,,,,,
,,110563,171,1,2024-03-13_00h22.58.745,Memory and Syntax,2023.2.3,MacIntel,71.42857143,,,,,195.174,197.174,n,1,197.175,197.175,,0,,,197.175,197.175,,197.175,197.175,,0,22,22,22,1,cvmt/test_items/t23.jpeg,n,1.133,,,,,,,,,,,,,,,,,,,,,,,,,,,
,,110563,171,1,2024-03-13_00h22.58.745,Memory and Syntax,2023.2.3,MacIntel,71.42857143,,,,,197.175,199.176,n,1,199.176,199.176,,0,,,199.176,199.176,,199.176,199.176,,0,23,23,23,1,cvmt/test_items/t24.jpeg,n,0.902,,,,,,,,,,,,,,,,,,,,,,,,,,,
,,110563,171,1,2024-03-13_00h22.58.745,Memory and Syntax,2023.2.3,MacIntel,71.42857143,,,,,199.176,201.177,o,1,201.177,201.178,,0,,,201.178,201.178,,201.178,201.179,,0,24,24,24,1,cvmt/test_items/t25.jpeg,o,0.778,,,,,,,,,,,,,,,,,,,,,,,,,,,
,,110563,171,1,2024-03-13_00h22.58.745,Memory and Syntax,2023.2.3,MacIntel,71.42857143,,,,,201.179,203.178,n,1,203.178,203.178,,0,,,203.178,203.179,,203.179,203.179,,0,25,25,25,1,cvmt/test_items/t26.jpeg,n,0.692,,,,,,,,,,,,,,,,,,,,,,,,,,,
,,110563,171,1,2024-03-13_00h22.58.745,Memory and Syntax,2023.2.3,MacIntel,71.42857143,,,,,203.179,205.179,o,1,205.179,205.18,,0,,,205.18,205.18,,205.18,205.18,,0,26,26,26,1,cvmt/test_items/t27.jpeg,o,0.819,,,,,,,,,,,,,,,,,,,,,,,,,,,
,,110563,171,1,2024-03-13_00h22.58.745,Memory and Syntax,2023.2.3,MacIntel,71.42857143,,,,,205.181,207.18,n,1,207.18,207.181,,0,,,207.181,207.181,,207.181,207.181,,0,27,27,27,1,cvmt/test_items/t28.jpeg,n,0.584,,,,,,,,,,,,,,,,,,,,,,,,,,,
,,110563,171,1,2024-03-13_00h22.58.745,Memory and Syntax,2023.2.3,MacIntel,71.42857143,,,,,207.181,209.181,o,0,209.182,209.182,,0,,,209.182,209.182,,209.182,209.182,,0,28,28,28,1,cvmt/test_items/t29.jpeg,n,0.76,,,,,,,,,,,,,,,,,,,,,,,,,,,
,,110563,171,1,2024-03-13_00h22.58.745,Memory and Syntax,2023.2.3,MacIntel,71.42857143,,,,,209.183,211.183,o,1,211.183,211.183,,0,,,211.183,211.184,,211.184,211.184,,0,29,29,29,1,cvmt/test_items/t30.jpeg,o,0.861,,,,,,,,,,,,,,,,,,,,,,,,,,,
,,110563,171,1,2024-03-13_00h22.58.745,Memory and Syntax,2023.2.3,MacIntel,71.42857143,,,,,211.184,213.184,o,1,213.184,213.184,,0,,,213.184,213.184,,213.184,213.184,,0,30,30,30,1,cvmt/test_items/t31.jpeg,o,0.862,,,,,,,,,,,,,,,,,,,,,,,,,,,
,,110563,171,1,2024-03-13_00h22.58.745,Memory and Syntax,2023.2.3,MacIntel,71.42857143,,,,,213.185,215.187,n,1,215.187,215.187,,0,,,215.187,215.187,,215.187,215.188,,0,31,31,31,1,cvmt/test_items/t32.jpeg,n,1.218,,,,,,,,,,,,,,,,,,,,,,,,,,,
,,110563,171,1,2024-03-13_00h22.58.745,Memory and Syntax,2023.2.3,MacIntel,71.42857143,,,,,215.188,217.186,n,1,217.186,217.186,,0,,,217.186,217.187,,217.187,217.187,,0,32,32,32,1,cvmt/test_items/t33.jpeg,n,0.935,,,,,,,,,,,,,,,,,,,,,,,,,,,
,,110563,171,1,2024-03-13_00h22.58.745,Memory and Syntax,2023.2.3,MacIntel,71.42857143,,,,,217.187,219.187,o,1,219.188,219.188,,0,,,219.188,219.188,,219.188,219.189,,0,33,33,33,1,cvmt/test_items/t34.jpeg,o,1.144,,,,,,,,,,,,,,,,,,,,,,,,,,,
,,110563,171,1,2024-03-13_00h22.58.745,Memory and Syntax,2023.2.3,MacIntel,71.42857143,,,,,219.189,221.189,n,1,221.189,221.189,,0,,,221.189,221.189,,221.189,221.189,,0,34,34,34,1,cvmt/test_items/t35.jpeg,n,1.027,,,,,,,,,,,,,,,,,,,,,,,,,,,
,,110563,171,1,2024-03-13_00h22.58.745,Memory and Syntax,2023.2.3,MacIntel,71.42857143,,,,,221.189,223.19,o,1,223.19,223.19,,0,,,223.19,223.19,,223.19,223.19,,0,35,35,35,1,cvmt/test_items/t36.jpeg,o,0.788,,,,,,,,,,,,,,,,,,,,,,,,,,,
,,110563,171,1,2024-03-13_00h22.58.745,Memory and Syntax,2023.2.3,MacIntel,71.42857143,,,,,223.19,225.191,o,0,225.191,225.191,,0,,,225.191,225.191,,225.191,225.191,,0,36,36,36,1,cvmt/test_items/t37.jpeg,n,1.087,,,,,,,,,,,,,,,,,,,,,,,,,,,
,,110563,171,1,2024-03-13_00h22.58.745,Memory and Syntax,2023.2.3,MacIntel,71.42857143,,,,,225.191,227.192,n,0,227.192,227.192,,0,,,227.192,227.192,,227.192,227.192,,0,37,37,37,1,cvmt/test_items/t38.jpeg,o,1.307,,,,,,,,,,,,,,,,,,,,,,,,,,,
,,110563,171,1,2024-03-13_00h22.58.745,Memory and Syntax,2023.2.3,MacIntel,71.42857143,,,,,227.193,229.193,n,1,229.193,229.193,,0,,,229.193,229.193,,229.194,229.194,,0,38,38,38,1,cvmt/test_items/t39.jpeg,n,0.679,,,,,,,,,,,,,,,,,,,,,,,,,,,
,,110563,171,1,2024-03-13_00h22.58.745,Memory and Syntax,2023.2.3,MacIntel,71.42857143,,,,,229.194,231.194,o,1,231.194,231.194,,0,,,231.194,231.195,,231.195,231.195,,0,39,39,39,1,cvmt/test_items/t40.jpeg,o,0.83,,,,,,,,,,,,,,,,,,,,,,,,,,,
,,110563,171,1,2024-03-13_00h22.58.745,Memory and Syntax,2023.2.3,MacIntel,71.42857143,,,,,231.195,233.196,n,1,233.196,233.196,,0,,,233.196,233.197,,233.197,233.197,,0,40,40,40,1,cvmt/test_items/t41.jpeg,n,0.898,,,,,,,,,,,,,,,,,,,,,,,,,,,
,,110563,171,1,2024-03-13_00h22.58.745,Memory and Syntax,2023.2.3,MacIntel,71.42857143,,,,,233.197,235.196,o,1,235.196,235.197,,0,,,235.197,235.197,,235.197,235.197,,0,41,41,41,1,cvmt/test_items/t42.jpeg,o,0.915,,,,,,,,,,,,,,,,,,,,,,,,,,,
,,110563,171,1,2024-03-13_00h22.58.745,Memory and Syntax,2023.2.3,MacIntel,71.42857143,,,,,235.197,237.198,o,1,237.198,237.198,,0,,,237.198,237.198,,237.198,237.198,,0,42,42,42,1,cvmt/test_items/t43.jpeg,o,0.938,,,,,,,,,,,,,,,,,,,,,,,,,,,
,,110563,171,1,2024-03-13_00h22.58.745,Memory and Syntax,2023.2.3,MacIntel,71.42857143,,,,,237.198,239.199,n,1,239.199,239.199,,0,,,239.199,239.199,,239.199,239.199,,0,43,43,43,1,cvmt/test_items/t44.jpeg,n,0.738,,,,,,,,,,,,,,,,,,,,,,,,,,,
,,110563,171,1,2024-03-13_00h22.58.745,Memory and Syntax,2023.2.3,MacIntel,71.42857143,,,,,239.199,241.2,o,1,241.2,241.2,,0,,,241.2,241.201,,241.201,241.201,,0,44,44,44,1,cvmt/test_items/t45.jpeg,o,1.155,,,,,,,,,,,,,,,,,,,,,,,,,,,
,,110563,171,1,2024-03-13_00h22.58.745,Memory and Syntax,2023.2.3,MacIntel,71.42857143,,,,,241.201,243.201,o,1,243.201,243.201,,0,,,243.201,243.202,,243.202,243.202,,0,45,45,45,1,cvmt/test_items/t46.jpeg,o,0.778,,,,,,,,,,,,,,,,,,,,,,,,,,,
,,110563,171,1,2024-03-13_00h22.58.745,Memory and Syntax,2023.2.3,MacIntel,71.42857143,,,,,243.202,245.202,n,0,245.202,245.202,,0,,,245.202,245.203,,245.203,245.203,,0,46,46,46,1,cvmt/test_items/t47.jpeg,o,1.062,,,,,,,,,,,,,,,,,,,,,,,,,,,
,,110563,171,1,2024-03-13_00h22.58.745,Memory and Syntax,2023.2.3,MacIntel,71.42857143,,,,,245.203,247.203,n,1,247.204,247.204,,0,,,247.204,247.205,,247.205,247.205,,0,47,47,47,1,cvmt/test_items/t48.jpeg,n,1.03,,,,,,,,,,,,,,,,,,,,,,,,,,,
,,110563,171,1,2024-03-13_00h22.58.745,Memory and Syntax,2023.2.3,MacIntel,71.42857143,,,,,247.205,249.205,o,1,249.205,249.205,,0,,,249.205,249.206,,249.206,249.206,,0,48,48,48,1,cvmt/test_items/t49.jpeg,o,0.752,,,,,,,,,,,,,,,,,,,,,,,,,,,
,,110563,171,1,2024-03-13_00h22.58.745,Memory and Syntax,2023.2.3,MacIntel,71.42857143,,,,,249.206,251.206,n,0,251.206,251.206,,0,,,251.206,251.207,,251.207,251.207,,0,49,49,49,1,cvmt/test_items/t50.jpeg,o,0.861,,,,,,,,,,,,,,,,,,,,,,,,,,,
,,110563,171,1,2024-03-13_00h22.58.745,Memory and Syntax,2023.2.3,MacIntel,71.42857143,,,,,251.207,253.207,n,1,253.207,253.207,,0,,,253.207,253.208,,253.208,253.208,,0,50,50,50,1,cvmt/test_items/t51.jpeg,n,0.952,,,,,,,,,,,,,,,,,,,,,,,,,,,
,,110563,171,1,2024-03-13_00h22.58.745,Memory and Syntax,2023.2.3,MacIntel,71.42857143,,,,,253.208,255.208,o,1,255.208,255.208,,0,,,255.208,255.209,,255.209,255.209,,0,51,51,51,1,cvmt/test_items/t52.jpeg,o,0.638,,,,,,,,,,,,,,,,,,,,,,,,,,,
,,110563,171,1,2024-03-13_00h22.58.745,Memory and Syntax,2023.2.3,MacIntel,71.42857143,,,,,255.209,257.209,o,1,257.209,257.209,,0,,,257.209,257.21,,257.21,257.21,,0,52,52,52,1,cvmt/test_items/t53.jpeg,o,1.037,,,,,,,,,,,,,,,,,,,,,,,,,,,
,,110563,171,1,2024-03-13_00h22.58.745,Memory and Syntax,2023.2.3,MacIntel,71.42857143,,,,,257.21,259.21,o,1,259.21,259.21,,0,,,259.21,259.211,,259.211,259.211,,0,53,53,53,1,cvmt/test_items/t54.jpeg,o,0.77,,,,,,,,,,,,,,,,,,,,,,,,,,,
,,110563,171,1,2024-03-13_00h22.58.745,Memory and Syntax,2023.2.3,MacIntel,71.42857143,,,,,259.211,261.211,n,0,261.211,261.212,,0,,,261.212,261.212,,261.212,261.212,,0,54,54,54,1,cvmt/test_items/t55.jpeg,o,1.537,,,,,,,,,,,,,,,,,,,,,,,,,,,
,,110563,171,1,2024-03-13_00h22.58.745,Memory and Syntax,2023.2.3,MacIntel,71.42857143,,,,,261.212,263.213,o,1,263.213,263.213,,0,,,263.213,263.214,,263.214,263.214,,0,55,55,55,1,cvmt/test_items/t56.jpeg,o,0.93,,,,,,,,,,,,,,,,,,,,,,,,,,,
,,110563,171,1,2024-03-13_00h22.58.745,Memory and Syntax,2023.2.3,MacIntel,71.42857143,,,,,263.214,265.214,o,1,265.214,265.214,,0,,,265.214,265.215,,265.215,265.215,,0,56,56,56,1,cvmt/test_items/t57.jpeg,o,0.771,,,,,,,,,,,,,,,,,,,,,,,,,,,
,,110563,171,1,2024-03-13_00h22.58.745,Memory and Syntax,2023.2.3,MacIntel,71.42857143,,,,,265.215,267.215,n,1,267.215,267.215,,0,,,267.215,267.215,,267.215,267.215,,0,57,57,57,1,cvmt/test_items/t58.jpeg,n,1.635,,,,,,,,,,,,,,,,,,,,,,,,,,,
,,110563,171,1,2024-03-13_00h22.58.745,Memory and Syntax,2023.2.3,MacIntel,71.42857143,,,,,267.216,269.216,n,1,269.216,269.216,,0,,,269.216,269.216,,269.216,269.217,,0,58,58,58,1,cvmt/test_items/t59.jpeg,n,0.967,,,,,,,,,,,,,,,,,,,,,,,,,,,
,,110563,171,1,2024-03-13_00h22.58.745,Memory and Syntax,2023.2.3,MacIntel,71.42857143,,,,,269.217,271.217,o,1,271.217,271.217,,0,,,271.217,271.218,,271.218,271.218,,0,59,59,59,1,cvmt/test_items/t60.jpeg,o,0.705,,,,,,,,,,,,,,,,,,,,,,,,,,,
,,110563,171,1,2024-03-13_00h22.58.745,Memory and Syntax,2023.2.3,MacIntel,71.42857143,,,,,271.218,273.218,o,1,273.218,273.218,,0,,,273.218,273.219,,273.219,273.219,,0,60,60,60,1,cvmt/test_items/t61.jpeg,o,0.781,,,,,,,,,,,,,,,,,,,,,,,,,,,
,,110563,171,1,2024-03-13_00h22.58.745,Memory and Syntax,2023.2.3,MacIntel,71.42857143,,,,,273.219,275.219,n,0,275.219,275.22,,0,,,275.22,275.22,,275.22,275.22,,0,61,61,61,1,cvmt/test_items/t62.jpeg,o,0.43,,,,,,,,,,,,,,,,,,,,,,,,,,,
,,110563,171,1,2024-03-13_00h22.58.745,Memory and Syntax,2023.2.3,MacIntel,71.42857143,,,,,275.22,277.221,o,1,277.221,277.221,,0,,,277.221,277.221,,277.221,277.221,,0,62,62,62,1,cvmt/test_items/t63.jpeg,o,0.028,,,,,,,,,,,,,,,,,,,,,,,,,,,
,,110563,171,1,2024-03-13_00h22.58.745,Memory and Syntax,2023.2.3,MacIntel,71.42857143,,,,,277.221,279.222,n,0,279.222,279.222,,0,,,279.222,279.222,,279.222,279.222,,0,63,63,63,1,cvmt/test_items/t64.jpeg,o,0.881,,,,,,,,,,,,,,,,,,,,,,,,,,,
,,110563,171,1,2024-03-13_00h22.58.745,Memory and Syntax,2023.2.3,MacIntel,71.42857143,,,,,279.223,281.225,o,1,281.225,281.225,,0,,,281.225,281.226,,281.226,281.226,,0,64,64,64,1,cvmt/test_items/t65.jpeg,o,0.973,,,,,,,,,,,,,,,,,,,,,,,,,,,
,,110563,171,1,2024-03-13_00h22.58.745,Memory and Syntax,2023.2.3,MacIntel,71.42857143,,,,,281.226,283.224,o,1,283.224,283.224,,0,,,283.224,283.225,,283.225,283.225,,0,65,65,65,1,cvmt/test_items/t66.jpeg,o,0.762,,,,,,,,,,,,,,,,,,,,,,,,,,,
,,110563,171,1,2024-03-13_00h22.58.745,Memory and Syntax,2023.2.3,MacIntel,71.42857143,,,,,283.225,285.225,n,1,285.225,285.225,,0,,,285.225,285.226,,285.226,285.226,,0,66,66,66,1,cvmt/test_items/t67.jpeg,n,0.872,,,,,,,,,,,,,,,,,,,,,,,,,,,
,,110563,171,1,2024-03-13_00h22.58.745,Memory and Syntax,2023.2.3,MacIntel,71.42857143,,,,,285.226,287.227,n,0,287.227,287.227,,0,,,287.227,287.228,,287.228,287.228,,0,67,67,67,1,cvmt/test_items/t68.jpeg,o,0.847,,,,,,,,,,,,,,,,,,,,,,,,,,,
,,110563,171,1,2024-03-13_00h22.58.745,Memory and Syntax,2023.2.3,MacIntel,71.42857143,,,,,287.229,289.228,n,0,289.228,289.228,,0,,,289.228,289.229,,289.229,289.229,,0,68,68,68,1,cvmt/test_items/t69.jpeg,o,0.981,,,,,,,,,,,,,,,,,,,,,,,,,,,
,,110563,171,1,2024-03-13_00h22.58.745,Memory and Syntax,2023.2.3,MacIntel,71.42857143,,,,,289.229,291.229,o,1,291.229,291.229,,0,,,291.229,291.23,,291.23,291.23,,0,69,69,69,1,cvmt/test_items/t70.jpeg,o,1.189,,,,,,,,,,,,,,,,,,,,,,,,,,,
,,110563,171,1,2024-03-13_00h22.58.745,Memory and Syntax,2023.2.3,MacIntel,71.42857143,,,,,291.23,293.23,n,1,293.23,293.231,,0,,,293.231,293.231,,293.231,293.231,,0,70,70,70,1,cvmt/test_items/t71.jpeg,n,0.564,,,,,,,,,,,,,,,,,,,,,,,,,,,
,,110563,171,1,2024-03-13_00h22.58.745,Memory and Syntax,2023.2.3,MacIntel,71.42857143,,,,,293.232,295.231,n,0,295.231,295.231,,0,,,295.231,295.232,,295.232,295.232,,0,71,71,71,1,cvmt/test_items/t72.jpeg,o,0.63,,,,,,,,,,,,,,,,,,,,,,,,,,,
,,110563,171,1,2024-03-13_00h22.58.745,Memory and Syntax,2023.2.3,MacIntel,71.42857143,,,,,295.232,297.233,o,1,297.233,297.233,,0,,,297.233,297.233,,297.233,297.233,,0,72,72,72,1,cvmt/test_items/t73.jpeg,o,0.781,,,,,,,,,,,,,,,,,,,,,,,,,,,
,,110563,171,1,2024-03-13_00h22.58.745,Memory and Syntax,2023.2.3,MacIntel,71.42857143,,,,,297.234,299.234,n,0,299.234,299.234,,0,,,299.234,299.234,,299.234,299.234,,0,73,73,73,1,cvmt/test_items/t74.jpeg,o,1.048,,,,,,,,,,,,,,,,,,,,,,,,,,,
,,110563,171,1,2024-03-13_00h22.58.745,Memory and Syntax,2023.2.3,MacIntel,71.42857143,,,,,299.235,301.235,n,0,301.235,301.235,,0,,,301.235,301.235,,301.235,301.235,,0,74,74,74,1,cvmt/test_items/t75.jpeg,o,1.075,,,,,,,,,,,,,,,,,,,,,,,,,,,
,,110563,171,1,2024-03-13_00h22.58.745,Memory and Syntax,2023.2.3,MacIntel,71.42857143,,,,,301.235,303.236,n,0,303.236,303.236,,0,,,303.236,303.236,,303.236,303.237,,0,75,75,75,1,cvmt/test_items/t76.jpeg,o,1.002,,,,,,,,,,,,,,,,,,,,,,,,,,,
,,110563,171,1,2024-03-13_00h22.58.745,Memory and Syntax,2023.2.3,MacIntel,71.42857143,,,,,303.237,305.237,n,0,305.237,305.237,,0,,,305.238,305.238,,305.238,305.238,,0,76,76,76,1,cvmt/test_items/t77.jpeg,o,1.104,,,,,,,,,,,,,,,,,,,,,,,,,,,
,,110563,171,1,2024-03-13_00h22.58.745,Memory and Syntax,2023.2.3,MacIntel,71.42857143,,,,,305.238,307.238,o,1,307.238,307.238,,0,,,307.238,307.239,,307.239,307.239,,0,77,77,77,1,cvmt/test_items/t78.jpeg,o,0.644,,,,,,,,,,,,,,,,,,,,,,,,,,,
,,110563,171,1,2024-03-13_00h22.58.745,Memory and Syntax,2023.2.3,MacIntel,71.42857143,,,,,307.239,309.239,n,0,309.239,309.239,,0,,,309.239,309.24,,309.24,309.24,,0,78,78,78,1,cvmt/test_items/t79.jpeg,o,0.829,,,,,,,,,,,,,,,,,,,,,,,,,,,
,,110563,171,1,2024-03-13_00h22.58.745,Memory and Syntax,2023.2.3,MacIntel,71.42857143,,,,,309.24,311.24,o,0,311.24,311.24,,0,,,311.24,311.241,,311.241,311.241,,0,79,79,79,1,cvmt/test_items/t80.jpeg,n,1.187,,,,,,,,,,,,,,,,,,,,,,,,,,,
,,110563,171,1,2024-03-13_00h22.58.745,Memory and Syntax,2023.2.3,MacIntel,71.42857143,,,,,311.241,313.241,n,0,313.241,313.242,,0,,,313.242,313.242,,313.242,313.242,,0,80,80,80,1,cvmt/test_items/t81.jpeg,o,0.645,,,,,,,,,,,,,,,,,,,,,,,,,,,
,,110563,171,1,2024-03-13_00h22.58.745,Memory and Syntax,2023.2.3,MacIntel,71.42857143,,,,,313.242,315.242,o,1,315.243,315.243,,0,,,315.243,315.243,,315.243,315.243,,0,81,81,81,1,cvmt/test_items/t82.jpeg,o,0.819,,,,,,,,,,,,,,,,,,,,,,,,,,,
,,110563,171,1,2024-03-13_00h22.58.745,Memory and Syntax,2023.2.3,MacIntel,71.42857143,,,,,315.243,317.244,n,0,317.244,317.244,,0,,,317.244,317.244,,317.244,317.244,,0,82,82,82,1,cvmt/test_items/t83.jpeg,o,0.928,,,,,,,,,,,,,,,,,,,,,,,,,,,
,,110563,171,1,2024-03-13_00h22.58.745,Memory and Syntax,2023.2.3,MacIntel,71.42857143,,,,,317.245,319.245,n,0,319.245,319.245,,0,,,319.245,319.245,,319.245,319.246,,0,83,83,83,1,cvmt/test_items/t84.jpeg,o,0.911,,,,,,,,,,,,,,,,,,,,,,,,,,,
,,110563,171,1,2024-03-13_00h22.58.745,Memory and Syntax,2023.2.3,MacIntel,71.42857143,,,,,319.246,321.246,n,0,321.246,321.246,,0,,,321.246,321.247,,321.247,321.247,,0,84,84,84,1,cvmt/test_items/t85.jpeg,o,0.761,,,,,,,,,,,,,,,,,,,,,,,,,,,
,,110563,171,1,2024-03-13_00h22.58.745,Memory and Syntax,2023.2.3,MacIntel,71.42857143,,,,,321.247,323.247,o,1,323.247,323.247,,0,,,323.247,323.248,,323.248,323.248,,0,85,85,85,1,cvmt/test_items/t86.jpeg,o,0.687,,,,,,,,,,,,,,,,,,,,,,,,,,,
,,110563,171,1,2024-03-13_00h22.58.745,Memory and Syntax,2023.2.3,MacIntel,71.42857143,,,,,323.248,325.248,n,0,325.248,325.248,,0,,,325.249,325.249,,325.249,325.249,,0,86,86,86,1,cvmt/test_items/t87.jpeg,o,0.67,,,,,,,,,,,,,,,,,,,,,,,,,,,
,,110563,171,1,2024-03-13_00h22.58.745,Memory and Syntax,2023.2.3,MacIntel,71.42857143,,,,,325.249,327.249,n,1,327.249,327.25,,0,,,327.25,327.25,,327.25,327.25,,0,87,87,87,1,cvmt/test_items/t88.jpeg,n,0.904,,,,,,,,,,,,,,,,,,,,,,,,,,,
,,110563,171,1,2024-03-13_00h22.58.745,Memory and Syntax,2023.2.3,MacIntel,71.42857143,,,,,327.25,329.251,o,0,329.251,329.251,,0,,,329.251,329.251,,329.251,329.251,,0,88,88,88,1,cvmt/test_items/t89.jpeg,n,0.73,,,,,,,,,,,,,,,,,,,,,,,,,,,
,,110563,171,1,2024-03-13_00h22.58.745,Memory and Syntax,2023.2.3,MacIntel,71.42857143,,,,,329.251,331.252,o,1,331.252,331.252,,0,,,331.252,331.253,,331.253,331.253,,0,89,89,89,1,cvmt/test_items/t90.jpeg,o,0.896,,,,,,,,,,,,,,,,,,,,,,,,,,,
,,110563,171,1,2024-03-13_00h22.58.745,Memory and Syntax,2023.2.3,MacIntel,71.42857143,,,,,331.253,333.253,n,0,333.253,333.253,,0,,,333.253,333.253,,333.253,333.254,,0,90,90,90,1,cvmt/test_items/t91.jpeg,o,1.028,,,,,,,,,,,,,,,,,,,,,,,,,,,
,,110563,171,1,2024-03-13_00h22.58.745,Memory and Syntax,2023.2.3,MacIntel,71.42857143,,,,,333.254,335.254,n,0,335.254,335.254,,0,,,335.254,335.255,,335.255,335.255,,0,91,91,91,1,cvmt/test_items/t92.jpeg,o,0.795,,,,,,,,,,,,,,,,,,,,,,,,,,,
,,110563,171,1,2024-03-13_00h22.58.745,Memory and Syntax,2023.2.3,MacIntel,71.42857143,,,,,335.255,337.255,n,0,337.255,338.995,o,1,1.724,,338.996,338.996,,338.996,338.996,,0,92,92,92,1,cvmt/test_items/t93.jpeg,o,0.759,,,,,,,,,,,,,,,,,,,,,,,,,,,
,,110563,171,1,2024-03-13_00h22.58.745,Memory and Syntax,2023.2.3,MacIntel,71.42857143,,,,,338.996,340.991,n,0,340.991,340.991,,0,,,340.991,340.991,,340.991,340.991,,0,93,93,93,1,cvmt/test_items/t94.jpeg,o,1.148,,,,,,,,,,,,,,,,,,,,,,,,,,,
,,110563,171,1,2024-03-13_00h22.58.745,Memory and Syntax,2023.2.3,MacIntel,71.42857143,,,,,340.991,342.992,n,0,342.992,342.992,,0,,,342.992,342.992,,342.992,342.992,,0,94,94,94,1,cvmt/test_items/t95.jpeg,o,1.574,,,,,,,,,,,,,,,,,,,,,,,,,,,
,,110563,171,1,2024-03-13_00h22.58.745,Memory and Syntax,2023.2.3,MacIntel,71.42857143,,,,,342.993,344.993,n,0,344.993,344.993,,0,,,344.993,344.994,,344.994,344.994,,0,95,95,95,1,cvmt/test_items/t96.jpeg,o,1.03,,,,,,,,,,,,,,,,,,,,,,,,,,,
,,110563,171,1,2024-03-13_00h22.58.745,Memory and Syntax,2023.2.3,MacIntel,71.42857143,,,,,344.994,346.995,o,1,346.995,346.995,,0,,,346.995,346.996,,346.996,346.996,,0,96,96,96,1,cvmt/test_items/t97.jpeg,o,0.87,,,,,,,,,,,,,,,,,,,,,,,,,,,
,,110563,171,1,2024-03-13_00h22.58.745,Memory and Syntax,2023.2.3,MacIntel,71.42857143,,,,,346.997,348.995,n,1,348.995,348.996,,0,,,348.996,348.996,,348.996,348.996,,0,97,97,97,1,cvmt/test_items/t98.jpeg,n,0.587,,,,,,,,,,,,,,,,,,,,,,,,,,,
,,110563,171,1,2024-03-13_00h22.58.745,Memory and Syntax,2023.2.3,MacIntel,71.42857143,,,,,348.997,350.996,n,0,350.997,350.997,,0,,,350.997,350.998,,350.998,350.998,,0,98,98,98,1,cvmt/test_items/t99.jpeg,o,0.735,,,,,,,,,,,,,,,,,,,,,,,,,,,
,,110563,171,1,2024-03-13_00h22.58.745,Memory and Syntax,2023.2.3,MacIntel,71.42857143,,,,,350.998,352.998,o,1,352.998,352.998,,0,,,352.998,352.999,,352.999,352.999,,0,99,99,99,1,cvmt/test_items/t100.jpeg,o,0.836,,,,,,,,,,,,,,,,,,,,,,,,,,,
,,110563,171,1,2024-03-13_00h22.58.745,Memory and Syntax,2023.2.3,MacIntel,71.42857143,,,,,352.999,354.999,n,0,354.999,354.999,,0,,,354.999,355,,355,355,,0,100,100,100,1,cvmt/test_items/t101.jpeg,o,0.987,,,,,,,,,,,,,,,,,,,,,,,,,,,
,,110563,171,1,2024-03-13_00h22.58.745,Memory and Syntax,2023.2.3,MacIntel,71.42857143,,,,,355,357,o,1,357,357,,0,,,357,357.001,,357.001,357.001,,0,101,101,101,1,cvmt/test_items/t102.jpeg,o,0.721,,,,,,,,,,,,,,,,,,,,,,,,,,,
,,110563,171,1,2024-03-13_00h22.58.745,Memory and Syntax,2023.2.3,MacIntel,71.42857143,,,,,357.001,359.001,n,0,359.001,359.001,,0,,,359.001,359.002,,359.002,359.002,,0,102,102,102,1,cvmt/test_items/t103.jpeg,o,0.972,,,,,,,,,,,,,,,,,,,,,,,,,,,
,,110563,171,1,2024-03-13_00h22.58.745,Memory and Syntax,2023.2.3,MacIntel,71.42857143,,,,,359.002,361.002,n,0,361.002,361.002,,0,,,361.003,361.003,,361.003,361.003,,0,103,103,103,1,cvmt/test_items/t104.jpeg,o,0.638,,,,,,,,,,,,,,,,,,,,,,,,,,,
,,110563,171,1,2024-03-13_00h22.58.745,Memory and Syntax,2023.2.3,MacIntel,71.42857143,,,,,361.003,363.003,o,0,363.003,363.004,,0,,,363.004,363.004,,363.004,363.004,,0,104,104,104,1,cvmt/test_items/t105.jpeg,n,0.888,,,,,,,,,,,,,,,,,,,,,,,,,,,
,,110563,171,1,2024-03-13_00h22.58.745,Memory and Syntax,2023.2.3,MacIntel,71.42857143,,,,,363.004,365.005,n,0,365.005,365.005,,0,,,365.005,365.006,,365.006,365.006,,0,105,105,105,1,cvmt/test_items/t106.jpeg,o,0.613,,,,,,,,,,,,,,,,,,,,,,,,,,,
,,110563,171,1,2024-03-13_00h22.58.745,Memory and Syntax,2023.2.3,MacIntel,71.42857143,,,,,365.006,367.006,o,1,367.006,367.006,,0,,,367.006,367.006,,367.006,367.006,,0,106,106,106,1,cvmt/test_items/t107.jpeg,o,0.728,,,,,,,,,,,,,,,,,,,,,,,,,,,
,,110563,171,1,2024-03-13_00h22.58.745,Memory and Syntax,2023.2.3,MacIntel,71.42857143,,,,,367.007,369.007,n,0,369.007,369.007,,0,,,369.007,369.008,,369.008,369.008,,0,107,107,107,1,cvmt/test_items/t108.jpeg,o,0.73,,,,,,,,,,,,,,,,,,,,,,,,,,,
,,110563,171,1,2024-03-13_00h22.58.745,Memory and Syntax,2023.2.3,MacIntel,71.42857143,,,,,369.008,371.008,n,0,371.008,371.008,,0,,,371.008,371.009,,371.009,371.009,,0,108,108,108,1,cvmt/test_items/t109.jpeg,o,0.774,,,,,,,,,,,,,,,,,,,,,,,,,,,
,,110563,171,1,2024-03-13_00h22.58.745,Memory and Syntax,2023.2.3,MacIntel,71.42857143,,,,,371.009,373.009,o,1,373.009,373.009,,0,,,373.009,373.01,,373.01,373.01,,0,109,109,109,1,cvmt/test_items/t110.jpeg,o,0.753,,,,,,,,,,,,,,,,,,,,,,,,,,,
,,110563,171,1,2024-03-13_00h22.58.745,Memory and Syntax,2023.2.3,MacIntel,71.42857143,,,,,373.01,375.01,o,1,375.01,375.01,,0,,,375.01,375.011,,375.011,375.011,,0,110,110,110,1,cvmt/test_items/t111.jpeg,o,0.754,,,,,,,,,,,,,,,,,,,,,,,,,,,
,,110563,171,1,2024-03-13_00h22.58.745,Memory and Syntax,2023.2.3,MacIntel,71.42857143,,,,,375.011,377.011,n,0,377.011,377.012,,0,,,377.012,377.012,,377.012,377.012,,0,111,111,111,1,cvmt/test_items/t112.jpeg,o,0.688,,,,,,,,,,,,,,,,,,,,,,,,,,,
,,110563,171,1,2024-03-13_00h22.58.745,Memory and Syntax,2023.2.3,MacIntel,71.42857143,,,,,377.012,379.013,n,1,379.013,379.013,,0,,,379.013,379.013,,379.013,379.013,,0,112,112,112,1,cvmt/test_items/t113.jpeg,n,0.537,,,,,,,,,,,,,,,,,,,,,,,,,,,
,,110563,171,1,2024-03-13_00h22.58.745,Memory and Syntax,2023.2.3,MacIntel,71.42857143,,,,,379.013,381.014,n,0,381.014,381.014,,0,,,381.014,381.014,,381.014,381.014,,0,113,113,113,1,cvmt/test_items/t114.jpeg,o,1.275,,,,,,,,,,,,,,,,,,,,,,,,,,,
,,110563,171,1,2024-03-13_00h22.58.745,Memory and Syntax,2023.2.3,MacIntel,71.42857143,,,,,381.015,383.015,n,0,383.015,383.015,,0,,,383.015,383.015,,383.015,383.016,,0,114,114,114,1,cvmt/test_items/t115.jpeg,o,0.735,,,,,,,,,,,,,,,,,,,,,,,,,,,
,,110563,171,1,2024-03-13_00h22.58.745,Memory and Syntax,2023.2.3,MacIntel,71.42857143,,,,,383.016,385.016,n,0,385.016,385.016,,0,,,385.016,385.017,,385.017,385.017,,0,115,115,115,1,cvmt/test_items/t116.jpeg,o,0.963,,,,,,,,,,,,,,,,,,,,,,,,,,,
,,110563,171,1,2024-03-13_00h22.58.745,Memory and Syntax,2023.2.3,MacIntel,71.42857143,,,,,385.017,387.017,o,1,387.017,387.018,,0,,,387.018,387.018,,387.018,387.018,,0,116,116,116,1,cvmt/test_items/t117.jpeg,o,1.007,,,,,,,,,,,,,,,,,,,,,,,,,,,
,,110563,171,1,2024-03-13_00h22.58.745,Memory and Syntax,2023.2.3,MacIntel,71.42857143,,,,,387.018,389.018,n,0,389.018,389.019,,0,,,389.019,389.019,,389.019,389.019,,0,117,117,117,1,cvmt/test_items/t118.jpeg,o,0.918,,,,,,,,,,,,,,,,,,,,,,,,,,,
,,110563,171,1,2024-03-13_00h22.58.745,Memory and Syntax,2023.2.3,MacIntel,71.42857143,,,,,389.019,391.02,n,0,391.02,391.02,,0,,,391.02,391.02,,391.02,391.02,,0,118,118,118,1,cvmt/test_items/t119.jpeg,o,0.745,,,,,,,,,,,,,,,,,,,,,,,,,,,
,,110563,171,1,2024-03-13_00h22.58.745,Memory and Syntax,2023.2.3,MacIntel,71.42857143,,,,,391.021,393.021,n,0,393.021,393.021,,0,,,393.021,393.021,,393.021,393.021,,0,119,119,119,1,cvmt/test_items/t120.jpeg,o,0.601,,,,,,,,,,,,,,,,,,,,,,,,,,,
,,110563,171,1,2024-03-13_00h22.58.745,Memory and Syntax,2023.2.3,MacIntel,71.42857143,,,,,393.022,395.022,n,0,395.022,395.022,,0,,,395.023,395.023,,395.023,395.023,,0,120,120,120,1,cvmt/test_items/t121.jpeg,o,0.731,,,,,,,,,,,,,,,,,,,,,,,,,,,
,,110563,171,1,2024-03-13_00h22.58.745,Memory and Syntax,2023.2.3,MacIntel,71.42857143,,,,,395.024,397.023,o,1,397.023,397.023,,0,,,397.023,397.024,,397.024,397.024,,0,121,121,121,1,cvmt/test_items/t122.jpeg,o,0.633,,,,,,,,,,,,,,,,,,,,,,,,,,,
,,110563,171,1,2024-03-13_00h22.58.745,Memory and Syntax,2023.2.3,MacIntel,71.42857143,,,,,397.025,399.024,n,1,399.024,399.025,,0,,,399.025,399.025,,399.025,399.025,,0,122,122,122,1,cvmt/test_items/t123.jpeg,n,0.546,,,,,,,,,,,,,,,,,,,,,,,,,,,
,,110563,171,1,2024-03-13_00h22.58.745,Memory and Syntax,2023.2.3,MacIntel,71.42857143,,,,,399.026,401.025,n,0,401.025,401.026,,0,,,401.026,401.026,,401.026,401.026,,0,123,123,123,1,cvmt/test_items/t124.jpeg,o,0.85,,,,,,,,,,,,,,,,,,,,,,,,,,,
,,110563,171,1,2024-03-13_00h22.58.745,Memory and Syntax,2023.2.3,MacIntel,71.42857143,,,,,401.026,403.026,o,1,403.027,403.027,,0,,,403.027,403.027,,403.027,403.027,,0,124,124,124,1,cvmt/test_items/t125.jpeg,o,0.59,,,,,,,,,,,,,,,,,,,,,,,,,,,
,,110563,171,1,2024-03-13_00h22.58.745,Memory and Syntax,2023.2.3,MacIntel,71.42857143,,,,,403.028,405.028,o,1,405.028,405.028,,0,,,405.028,405.028,,405.028,405.028,,0,125,125,125,1,cvmt/test_items/t126.jpeg,o,0.845,,,,,,,,,,,,,,,,,,,,,,,,,,,
,,110563,171,1,2024-03-13_00h22.58.745,Memory and Syntax,2023.2.3,MacIntel,71.42857143,,,,,405.029,407.029,n,0,407.029,407.029,,0,,,407.029,407.029,,407.029,407.03,,0,126,126,126,1,cvmt/test_items/t127.jpeg,o,1.817,,,,,,,,,,,,,,,,,,,,,,,,,,,
,,110563,171,1,2024-03-13_00h22.58.745,Memory and Syntax,2023.2.3,MacIntel,71.42857143,,,,,407.03,409.03,n,0,409.03,409.03,,0,,,409.03,409.031,,409.031,409.031,,0,127,127,127,1,cvmt/test_items/t128.jpeg,o,0.962,,,,,,,,,,,,,,,,,,,,,,,,,,,
,,110563,171,1,2024-03-13_00h22.58.745,Memory and Syntax,2023.2.3,MacIntel,71.42857143,,,,,409.031,411.031,n,0,411.031,411.031,,0,,,411.031,411.032,,411.032,411.032,,0,128,128,128,1,cvmt/test_items/t129.jpeg,o,0.861,,,,,,,,,,,,,,,,,,,,,,,,,,,
,,110563,171,1,2024-03-13_00h22.58.745,Memory and Syntax,2023.2.3,MacIntel,71.42857143,,,,,411.032,413.032,n,0,413.032,413.033,,0,,,413.033,413.033,,413.033,413.034,,0,129,129,129,1,cvmt/test_items/t130.jpeg,o,1.007,,,,,,,,,,,,,,,,,,,,,,,,,,,
,,110563,171,1,2024-03-13_00h22.58.745,Memory and Syntax,2023.2.3,MacIntel,71.42857143,,,,,413.034,415.033,n,1,415.033,415.034,,0,,,415.034,415.034,,415.034,415.034,,0,130,130,130,1,cvmt/test_items/t131.jpeg,n,1.107,,,,,,,,,,,,,,,,,,,,,,,,,,,
,,110563,171,1,2024-03-13_00h22.58.745,Memory and Syntax,2023.2.3,MacIntel,71.42857143,,,,,415.034,417.035,o,1,417.035,417.035,,0,,,417.035,417.035,,417.035,417.035,,0,131,131,131,1,cvmt/test_items/t132.jpeg,o,0.71,,,,,,,,,,,,,,,,,,,,,,,,,,,
,,110563,171,1,2024-03-13_00h22.58.745,Memory and Syntax,2023.2.3,MacIntel,71.42857143,,,,,417.035,419.036,o,1,419.036,419.036,,0,,,419.036,419.036,,419.036,419.036,,0,132,132,132,1,cvmt/test_items/t133.jpeg,o,0.887,,,,,,,,,,,,,,,,,,,,,,,,,,,
,,110563,171,1,2024-03-13_00h22.58.745,Memory and Syntax,2023.2.3,MacIntel,71.42857143,,,,,419.037,421.037,o,1,421.037,421.037,,0,,,421.037,421.038,,421.038,421.038,,0,133,133,133,1,cvmt/test_items/t134.jpeg,o,0.875,,,,,,,,,,,,,,,,,,,,,,,,,,,
,,110563,171,1,2024-03-13_00h22.58.745,Memory and Syntax,2023.2.3,MacIntel,71.42857143,,,,,421.038,423.038,n,0,423.038,423.038,,0,,,423.038,423.039,,423.039,423.039,,0,134,134,134,1,cvmt/test_items/t135.jpeg,o,0.742,,,,,,,,,,,,,,,,,,,,,,,,,,,
,,110563,171,1,2024-03-13_00h22.58.745,Memory and Syntax,2023.2.3,MacIntel,71.42857143,,,,,,,,,,,,,,,,,,,,,,,,,,,,,,,,,,423.041,423.041,0,423.053,429.159,space,5.21,,429.165,436.798,3,7.631,0,0,0,0,1,1,1,WOV,8B,Practiced the virtuoso many pieces.
,,110563,171,1,2024-03-13_00h22.58.745,Memory and Syntax,2023.2.3,MacIntel,71.42857143,,,,,,,,,,,,,,,,,,,,,,,,,,,,,,,,,,,,,,,,,,436.799,443.833,3,7.026,0,1,1,1,1,1,2,AS,6A,The rickety old boat sank.
,,110563,171,1,2024-03-13_00h22.58.745,Memory and Syntax,2023.2.3,MacIntel,71.42857143,,,,,,,,,,,,,,,,,,,,,,,,,,,,,,,,,,,,,,,,,,443.834,446.985,5,3.142,0,2,2,2,1,1,3,WO,6A,The waiter set the table promptly.
,,110563,171,1,2024-03-13_00h22.58.745,Memory and Syntax,2023.2.3,MacIntel,71.42857143,,,,,,,,,,,,,,,,,,,,,,,,,,,,,,,,,,,,,,,,,,446.986,454.242,2.2,7.254,0,3,3,3,1,1,4,control,12B,They anticipate that everybody you do will contact Megan.
,,110563,171,1,2024-03-13_00h22.58.745,Memory and Syntax,2023.2.3,MacIntel,71.42857143,,,,,,,,,,,,,,,,,,,,,,,,,,,,,,,,,,,,,,,,,,454.242,457.211,4.9,2.965,0,4,4,4,1,1,5,ASV,11B,The cat moved himself away.
,,110563,171,1,2024-03-13_00h22.58.745,Memory and Syntax,2023.2.3,MacIntel,71.42857143,,,,,,,,,,,,,,,,,,,,,,,,,,,,,,,,,,,,,,,,,,457.211,461.76,5,4.54,0,5,5,5,1,1,6,ASV,7B,She laughed herself at the dog.
,,110563,171,1,2024-03-13_00h22.58.745,Memory and Syntax,2023.2.3,MacIntel,71.42857143,,,,,,,,,,,,,,,,,,,,,,,,,,,,,,,,,,,,,,,,,,461.76,465.699,5.9,3.938,0,6,6,6,1,1,7,AS,5A,The professor cried about the article.
,,110563,171,1,2024-03-13_00h22.58.745,Memory and Syntax,2023.2.3,MacIntel,71.42857143,,,,,,,,,,,,,,,,,,,,,,,,,,,,,,,,,,,,,,,,,,465.699,468.881,6,3.172,0,7,7,7,1,1,8,WO,5A,My sibling expected a good grade.
,,110563,171,1,2024-03-13_00h22.58.745,Memory and Syntax,2023.2.3,MacIntel,71.42857143,,,,,,,,,,,,,,,,,,,,,,,,,,,,,,,,,,,,,,,,,,468.881,474.167,3,5.277,0,8,8,8,1,1,9,filler,1A,There has been a man considered violent.
,,110563,171,1,2024-03-13_00h22.58.745,Memory and Syntax,2023.2.3,MacIntel,71.42857143,,,,,,,,,,,,,,,,,,,,,,,,,,,,,,,,,,,,,,,,,,474.168,477.402,5,3.228,0,9,9,9,1,1,10,AS,2A,Taylor subscribed to the channel.
,,110563,171,1,2024-03-13_00h22.58.745,Memory and Syntax,2023.2.3,MacIntel,71.42857143,,,,,,,,,,,,,,,,,,,,,,,,,,,,,,,,,,,,,,,,,,477.402,481.938,4.9,4.528,0,10,10,10,1,1,11,control,10B,There might fossils seem to be several miles underground.
,,110563,171,1,2024-03-13_00h22.58.745,Memory and Syntax,2023.2.3,MacIntel,71.42857143,,,,,,,,,,,,,,,,,,,,,,,,,,,,,,,,,,,,,,,,,,481.939,484.907,6.1,2.96,0,11,11,11,1,1,12,ASV,8B,Esperanza sighed herself at the desk.
,,110563,171,1,2024-03-13_00h22.58.745,Memory and Syntax,2023.2.3,MacIntel,71.42857143,,,,,,,,,,,,,,,,,,,,,,,,,,,,,,,,,,,,,,,,,,484.907,489.879,1.1,4.969,0,12,12,12,1,1,13,WOV,9B,Read we five pages each night.
,,110563,171,1,2024-03-13_00h22.58.745,Memory and Syntax,2023.2.3,MacIntel,71.42857143,,,,,,,,,,,,,,,,,,,,,,,,,,,,,,,,,,,,,,,,,,489.88,494.965,2.1,5.083,0,13,13,13,1,1,14,WOV,7B,Frightened the eerie sound Seth.
,,110563,171,1,2024-03-13_00h22.58.745,Memory and Syntax,2023.2.3,MacIntel,71.42857143,,,,,,,,,,,,,,,,,,,,,,,,,,,,,,,,,,,,,,,,,,494.965,497.731,5.1,2.757,0,14,14,14,1,1,15,filler,2A,"Arty is sick, and Mark is too."
,,110563,171,1,2024-03-13_00h22.58.745,Memory and Syntax,2023.2.3,MacIntel,71.42857143,,,,,,,,,,,,,,,,,,,,,,,,,,,,,,,,,,,,,,,,,,497.731,501.119,5.3,3.385,0,15,15,15,1,1,16,ASV,9B,The prime minister confessed herself to bribery.
,,110563,171,1,2024-03-13_00h22.58.745,Memory and Syntax,2023.2.3,MacIntel,71.42857143,,,,,,,,,,,,,,,,,,,,,,,,,,,,,,,,,,,,,,,,,,501.12,504.101,2.2,2.973,0,16,16,16,1,1,17,control,7B,Olivia told Gregory when to exonerate herself.
,,110563,171,1,2024-03-13_00h22.58.745,Memory and Syntax,2023.2.3,MacIntel,71.42857143,,,,,,,,,,,,,,,,,,,,,,,,,,,,,,,,,,,,,,,,,,504.102,507.57,5.9,3.459,0,17,17,17,1,1,18,control,11B,There are likely students to be in the library.
,,110563,171,1,2024-03-13_00h22.58.745,Memory and Syntax,2023.2.3,MacIntel,71.42857143,,,,,,,,,,,,,,,,,,,,,,,,,,,,,,,,,,,,,,,,,,507.57,510.741,6,3.167,0,18,18,18,1,1,19,filler,5A,I told Mandy who would win the election.
,,110563,171,1,2024-03-13_00h22.58.745,Memory and Syntax,2023.2.3,MacIntel,71.42857143,,,,,,,,,,,,,,,,,,,,,,,,,,,,,,,,,,,,,,,,,,510.742,514.694,5.9,3.948,0,19,19,19,1,1,20,control,9B,We consider there three problems.
,,110563,171,1,2024-03-13_00h22.58.745,Memory and Syntax,2023.2.3,MacIntel,71.42857143,,,,,,,,,,,,,,,,,,,,,,,,,,,,,,,,,,,,,,,,,,514.694,517.762,2.9,3.065,0,20,20,20,1,1,21,control,8B,She called Victor and yelled at.
,,110563,171,1,2024-03-13_00h22.58.745,Memory and Syntax,2023.2.3,MacIntel,71.42857143,,,,,,,,,,,,,,,,,,,,,,,,,,,,,,,,,,,,,,,,,,517.763,520.327,3.1,2.556,0,21,21,21,1,1,22,WO,4A,The bully pushed every student.
,,110563,171,1,2024-03-13_00h22.58.745,Memory and Syntax,2023.2.3,MacIntel,71.42857143,,,,,,,,,,,,,,,,,,,,,,,,,,,,,,,,,,,,,,,,,,520.328,523.216,5,2.884,0,22,22,22,1,1,23,WO,3A,Miguel baked delicious cupcakes.
,,110563,171,1,2024-03-13_00h22.58.745,Memory and Syntax,2023.2.3,MacIntel,71.42857143,,,,,,,,,,,,,,,,,,,,,,,,,,,,,,,,,,,,,,,,,,523.216,526.034,7,2.815,0,23,23,23,1,1,24,WO,1A,Abby answered the question.
,,110563,171,1,2024-03-13_00h22.58.745,Memory and Syntax,2023.2.3,MacIntel,71.42857143,,,,,,,,,,,,,,,,,,,,,,,,,,,,,,,,,,,,,,,,,,526.034,529.419,6,3.381,0,24,24,24,1,1,25,filler,3A,Brittany attempted to touch the porcupine.
,,110563,171,1,2024-03-13_00h22.58.745,Memory and Syntax,2023.2.3,MacIntel,71.42857143,,,,,,,,,,,,,,,,,,,,,,,,,,,,,,,,,,,,,,,,,,529.42,532.171,6,2.75,0,25,25,25,1,1,26,AS,3A,Gracie stayed by the window.
,,110563,171,1,2024-03-13_00h22.58.745,Memory and Syntax,2023.2.3,MacIntel,71.42857143,,,,,,,,,,,,,,,,,,,,,,,,,,,,,,,,,,,,,,,,,,532.171,535.206,1,3.031,0,26,26,26,1,1,27,WOV,11B,Wrote she her boyfriend a poem.
,,110563,171,1,2024-03-13_00h22.58.745,Memory and Syntax,2023.2.3,MacIntel,71.42857143,,,,,,,,,,,,,,,,,,,,,,,,,,,,,,,,,,,,,,,,,,535.206,538.491,1.2,3.282,0,27,27,27,1,1,28,WOV,12B,Watched Lily a movie.
,,110563,171,1,2024-03-13_00h22.58.745,Memory and Syntax,2023.2.3,MacIntel,71.42857143,,,,,,,,,,,,,,,,,,,,,,,,,,,,,,,,,,,,,,,,,,538.492,542.226,5.9,3.731,0,28,28,28,1,1,29,WO,2A,Jackie won the close race.
,,110563,171,1,2024-03-13_00h22.58.745,Memory and Syntax,2023.2.3,MacIntel,71.42857143,,,,,,,,,,,,,,,,,,,,,,,,,,,,,,,,,,,,,,,,,,542.227,545.812,4.9,3.581,0,29,29,29,1,1,30,AS,4A,Tomas drank from the water pitcher.
,,110563,171,1,2024-03-13_00h22.58.745,Memory and Syntax,2023.2.3,MacIntel,71.42857143,,,,,,,,,,,,,,,,,,,,,,,,,,,,,,,,,,,,,,,,,,545.813,549.731,1.2,3.916,0,30,30,30,1,1,31,WOV,10B,Kissed Kareem his boyfriend.
,,110563,171,1,2024-03-13_00h22.58.745,Memory and Syntax,2023.2.3,MacIntel,71.42857143,,,,,,,,,,,,,,,,,,,,,,,,,,,,,,,,,,,,,,,,,,549.731,552.766,5,3.031,0,31,31,31,1,1,32,ASV,10B,The children quieted themselves.
,,110563,171,1,2024-03-13_00h22.58.745,Memory and Syntax,2023.2.3,MacIntel,71.42857143,,,,,,,,,,,,,,,,,,,,,,,,,,,,,,,,,,,,,,,,,,552.766,555.447,5.7,2.673,0,32,32,32,1,1,33,AS,1A,They fidgeted in their chairs.
,,110563,171,1,2024-03-13_00h22.58.745,Memory and Syntax,2023.2.3,MacIntel,71.42857143,,,,,,,,,,,,,,,,,,,,,,,,,,,,,,,,,,,,,,,,,,555.448,558.349,5.5,2.892,0,33,33,33,1,1,34,filler,4A,It seems to him that Kim solved the problem.
,,110563,171,1,2024-03-13_00h22.58.745,Memory and Syntax,2023.2.3,MacIntel,71.42857143,,,,,,,,,,,,,,,,,,,,,,,,,,,,,,,,,,,,,,,,,,558.35,561.954,5.5,3.601,0,34,34,34,1,1,35,ASV,12B,The swimmers shaved themselves.