load.started,load.stopped,Sona ID,Participant ID,Session,date,expName,psychopyVersion,OS,frameRate,cvmtInstr.started,cvmtInstr.stopped,cvmtTaskInstr.started,cvmtTaskInstr.stopped,presentDesign.started,presentDesign.stopped,cvmt_key_resp.keys,cvmt_key_resp.corr,cvmtNoResp.started,cvmtNoResp.stopped,cvmt_key_resp2.keys,cvmt_key_resp2.corr,cvmt_key_resp2.rt,cvmt_key_resp2.duration,cvmtSampleFB.started,cvmtSampleFB.stopped,key_resp_15.keys,cvmtSampleFBFinal.started,cvmtSampleFBFinal.stopped,cvmt_final_samp_fb_key_resp.keys,cvmtTrials.thisRepN,cvmtTrials.thisTrialN,cvmtTrials.thisN,cvmtTrials.thisIndex,cvmtTrials.ran,cvmt_design,old_or_new,cvmt_key_resp.rt,cvmt_key_resp.duration,key_resp_15.rt,key_resp_15.duration,cvmt_final_samp_fb_key_resp.rt,cvmt_final_samp_fb_key_resp.duration,cvmtDelay.started,cvmtDelay.stopped,cvmt timer,engAJT_instr.started,engAJT_instr.stopped,start_ajt.keys,start_ajt.rt,start_ajt.duration,engAJT.started,engAJT.stopped,acceptability.response,acceptability.rt,engAJT_trials.thisRepN,engAJT_trials.thisTrialN,engAJT_trials.thisN,engAJT_trials.thisIndex,engAJT_trials.ran,ajt_list,list_position,condition,item,testSent
0,0.003,110563,171,1,2024-03-13_00h34.19.847,Memory and Syntax,2023.2.3,MacIntel,62.5,,,,,,,,,,,,,,,,,,,,,,,,,,,,,,,,,,,,,,,,,,,,,,,,,,,,,,,
,,110563,171,1,2024-03-13_00h34.19.847,Memory and Syntax,2023.2.3,MacIntel,62.5,0.008,1.709,1.713,2.32,2.34,4.332,,0,4.333,25.949,n,1,21.591,,25.95,25.951,,25.951,25.952,,0,0,0,0,1,cvmt/sample/s1.jpg,n,,,,,,,,,,,,,,,,,,,,,,,,,,,,
,,110563,171,1,2024-03-13_00h34.19.847,Memory and Syntax,2023.2.3,MacIntel,62.5,,,,,25.953,27.946,n,1,27.946,27.947,,0,,,27.947,27.947,,27.947,27.948,,0,1,1,1,1,cvmt/sample/s2.jpg,n,0.942,,,,,,,,,,,,,,,,,,,,,,,,,,,
,,110563,171,1,2024-03-13_00h34.19.847,Memory and Syntax,2023.2.3,MacIntel,62.5,,,,,27.948,29.947,o,1,29.948,29.948,,0,,,29.948,29.949,,29.949,29.949,,0,2,2,2,1,cvmt/sample/s3.jpg,o,1.028,,,,,,,,,,,,,,,,,,,,,,,,,,,
,,110563,171,1,2024-03-13_00h34.19.847,Memory and Syntax,2023.2.3,MacIntel,62.5,,,,,29.95,31.948,n,1,31.948,31.948,,0,,,31.949,31.949,,31.949,31.949,,0,3,3,3,1,cvmt/sample/s4.jpg,n,0.645,,,,,,,,,,,,,,,,,,,,,,,,,,,
,,110563,171,1,2024-03-13_00h34.19.847,Memory and Syntax,2023.2.3,MacIntel,62.5,,,,,31.949,33.949,n,1,33.949,33.95,,0,,,33.95,33.95,,33.95,33.95,,0,4,4,4,1,cvmt/sample/s5.jpg,n,0.797,,,,,,,,,,,,,,,,,,,,,,,,,,,
,,110563,171,1,2024-03-13_00h34.19.847,Memory and Syntax,2023.2.3,MacIntel,62.5,,,,,33.951,35.953,o,0,35.953,35.953,,0,,,35.953,39.602,c,39.602,39.602,,0,5,5,5,1,cvmt/sample/s6.jpg,n,0.271,,3.609,,,,,,,,,,,,,,,,,,,,,,,,,
,,110563,171,1,2024-03-13_00h34.19.847,Memory and Syntax,2023.2.3,MacIntel,62.5,,,,,39.603,41.604,o,1,41.604,41.604,,0,,,41.604,41.606,,41.606,41.607,,0,6,6,6,1,cvmt/sample/s7.jpg,o,1.402,,,,,,,,,,,,,,,,,,,,,,,,,,,
,,110563,171,1,2024-03-13_00h34.19.847,Memory and Syntax,2023.2.3,MacIntel,62.5,,,,,41.607,43.607,n,1,43.607,43.608,,0,,,43.608,43.608,,43.608,43.608,,0,7,7,7,1,cvmt/sample/s8.jpg,n,0.748,,,,,,,,,,,,,,,,,,,,,,,,,,,
,,110563,171,1,2024-03-13_00h34.19.847,Memory and Syntax,2023.2.3,MacIntel,62.5,,,,,43.608,45.606,n,1,45.606,45.606,,0,,,45.606,45.607,,45.607,45.607,,0,8,8,8,1,cvmt/sample/s9.jpg,n,0.838,,,,,,,,,,,,,,,,,,,,,,,,,,,
,,110563,171,1,2024-03-13_00h34.19.847,Memory and Syntax,2023.2.3,MacIntel,62.5,,,,,45.607,47.608,n,1,47.608,47.608,,0,,,47.608,47.609,,47.609,47.609,,0,9,9,9,1,cvmt/sample/s10.jpg,n,0.704,,,,,,,,,,,,,,,,,,,,,,,,,,,
,,110563,171,1,2024-03-13_00h34.19.847,Memory and Syntax,2023.2.3,MacIntel,62.5,,,,,47.609,49.608,o,1,49.608,49.609,,0,,,49.609,49.609,,49.609,52.26,c,0,10,10,10,1,cvmt/sample/s11.jpg,o,0.716,,,,2.588,,,,,,,,,,,,,,,,,,,,,,,
,,110563,171,1,2024-03-13_00h34.19.847,Memory and Syntax,2023.2.3,MacIntel,62.5,,,52.261,66.768,66.776,68.769,n,1,68.77,68.77,,0,,,68.77,68.771,,68.771,68.774,,0,0,0,0,1,cvmt/test_items/t1.jpeg,n,1.085,,,,,,,,,,,,,,,,,,,,,,,,,,,
,,110563,171,1,2024-03-13_00h34.19.847,Memory and Syntax,2023.2.3,MacIntel,62.5,,,,,68.775,70.77,n,1,70.771,70.771,,0,,,70.771,70.771,,70.771,70.772,,0,1,1,1,1,cvmt/test_items/t2.jpeg,n,0.738,,,,,,,,,,,,,,,,,,,,,,,,,,,
,,110563,171,1,2024-03-13_00h34.19.847,Memory and Syntax,2023.2.3,MacIntel,62.5,,,,,70.772,72.772,,0,72.772,72.838,n,0,0.056,,72.838,72.838,,72.838,72.839,,0,2,2,2,1,cvmt/test_items/t3.jpeg,o,,,,,,,,,,,,,,,,,,,,,,,,,,,,
,,110563,171,1,2024-03-13_00h34.19.847,Memory and Syntax,2023.2.3,MacIntel,62.5,,,,,72.839,74.839,n,0,74.84,74.84,,0,,,74.84,74.84,,74.84,74.84,,0,3,3,3,1,cvmt/test_items/t4.jpeg,o,0.911,,,,,,,,,,,,,,,,,,,,,,,,,,,
,,110563,171,1,2024-03-13_00h34.19.847,Memory and Syntax,2023.2.3,MacIntel,62.5,,,,,74.841,76.841,n,0,76.841,76.841,,0,,,76.841,76.841,,76.841,76.842,,0,4,4,4,1,cvmt/test_items/t5.jpeg,o,0.513,,,,,,,,,,,,,,,,,,,,,,,,,,,
,,110563,171,1,2024-03-13_00h34.19.847,Memory and Syntax,2023.2.3,MacIntel,62.5,,,,,76.842,78.842,n,0,78.842,78.842,,0,,,78.842,78.843,,78.843,78.843,,0,5,5,5,1,cvmt/test_items/t6.jpeg,o,0.542,,,,,,,,,,,,,,,,,,,,,,,,,,,
,,110563,171,1,2024-03-13_00h34.19.847,Memory and Syntax,2023.2.3,MacIntel,62.5,,,,,78.843,80.843,n,0,80.843,80.843,,0,,,80.843,80.844,,80.844,80.844,,0,6,6,6,1,cvmt/test_items/t7.jpeg,o,0.77,,,,,,,,,,,,,,,,,,,,,,,,,,,
,,110563,171,1,2024-03-13_00h34.19.847,Memory and Syntax,2023.2.3,MacIntel,62.5,,,,,80.844,82.844,o,1,82.844,82.844,,0,,,82.845,82.845,,82.845,82.845,,0,7,7,7,1,cvmt/test_items/t8.jpeg,o,0.919,,,,,,,,,,,,,,,,,,,,,,,,,,,
,,110563,171,1,2024-03-13_00h34.19.847,Memory and Syntax,2023.2.3,MacIntel,62.5,,,,,82.845,84.845,n,0,84.845,84.845,,0,,,84.846,84.846,,84.846,84.846,,0,8,8,8,1,cvmt/test_items/t9.jpeg,o,0.532,,,,,,,,,,,,,,,,,,,,,,,,,,,
,,110563,171,1,2024-03-13_00h34.19.847,Memory and Syntax,2023.2.3,MacIntel,62.5,,,,,84.846,86.846,n,0,86.847,86.847,,0,,,86.847,86.847,,86.847,86.848,,0,9,9,9,1,cvmt/test_items/t10.jpeg,o,0.933,,,,,,,,,,,,,,,,,,,,,,,,,,,
,,110563,171,1,2024-03-13_00h34.19.847,Memory and Syntax,2023.2.3,MacIntel,62.5,,,,,86.848,88.847,n,1,88.848,88.848,,0,,,88.848,88.848,,88.848,88.848,,0,10,10,10,1,cvmt/test_items/t11.jpeg,n,0.624,,,,,,,,,,,,,,,,,,,,,,,,,,,
,,110563,171,1,2024-03-13_00h34.19.847,Memory and Syntax,2023.2.3,MacIntel,62.5,,,,,88.849,90.849,n,0,90.849,90.849,,0,,,90.849,90.849,,90.849,90.849,,0,11,11,11,1,cvmt/test_items/t12.jpeg,o,0.558,,,,,,,,,,,,,,,,,,,,,,,,,,,
,,110563,171,1,2024-03-13_00h34.19.847,Memory and Syntax,2023.2.3,MacIntel,62.5,,,,,90.849,92.85,n,0,92.85,92.85,,0,,,92.85,92.85,,92.85,92.85,,0,12,12,12,1,cvmt/test_items/t13.jpeg,o,0.907,,,,,,,,,,,,,,,,,,,,,,,,,,,
,,110563,171,1,2024-03-13_00h34.19.847,Memory and Syntax,2023.2.3,MacIntel,62.5,,,,,92.85,94.851,n,0,94.851,94.851,,0,,,94.851,94.852,,94.852,94.852,,0,13,13,13,1,cvmt/test_items/t14.jpeg,o,0.922,,,,,,,,,,,,,,,,,,,,,,,,,,,
,,110563,171,1,2024-03-13_00h34.19.847,Memory and Syntax,2023.2.3,MacIntel,62.5,,,,,94.852,96.852,o,1,96.852,96.853,,0,,,96.853,96.853,,96.853,96.853,,0,14,14,14,1,cvmt/test_items/t15.jpeg,o,0.857,,,,,,,,,,,,,,,,,,,,,,,,,,,
,,110563,171,1,2024-03-13_00h34.19.847,Memory and Syntax,2023.2.3,MacIntel,62.5,,,,,96.853,98.853,o,1,98.853,98.853,,0,,,98.853,98.854,,98.854,98.854,,0,15,15,15,1,cvmt/test_items/t16.jpeg,o,0.894,,,,,,,,,,,,,,,,,,,,,,,,,,,
,,110563,171,1,2024-03-13_00h34.19.847,Memory and Syntax,2023.2.3,MacIntel,62.5,,,,,98.854,100.854,n,0,100.854,100.855,,0,,,100.855,100.855,,100.855,100.855,,0,16,16,16,1,cvmt/test_items/t17.jpeg,o,0.638,,,,,,,,,,,,,,,,,,,,,,,,,,,
,,110563,171,1,2024-03-13_00h34.19.847,Memory and Syntax,2023.2.3,MacIntel,62.5,,,,,100.855,102.856,n,0,102.856,102.856,,0,,,102.856,102.856,,102.856,102.856,,0,17,17,17,1,cvmt/test_items/t18.jpeg,o,0.717,,,,,,,,,,,,,,,,,,,,,,,,,,,
,,110563,171,1,2024-03-13_00h34.19.847,Memory and Syntax,2023.2.3,MacIntel,62.5,,,,,102.857,104.857,n,1,104.857,104.857,,0,,,104.857,104.857,,104.857,104.857,,0,18,18,18,1,cvmt/test_items/t19.jpeg,n,0.689,,,,,,,,,,,,,,,,,,,,,,,,,,,
,,110563,171,1,2024-03-13_00h34.19.847,Memory and Syntax,2023.2.3,MacIntel,62.5,,,,,104.858,106.858,n,0,106.858,106.858,,0,,,106.858,106.858,,106.858,106.858,,0,19,19,19,1,cvmt/test_items/t20.jpeg,o,0.794,,,,,,,,,,,,,,,,,,,,,,,,,,,
,,110563,171,1,2024-03-13_00h34.19.847,Memory and Syntax,2023.2.3,MacIntel,62.5,,,,,106.859,108.859,n,0,108.859,108.859,,0,,,108.859,108.86,,108.86,108.86,,0,20,20,20,1,cvmt/test_items/t21.jpeg,o,0.673,,,,,,,,,,,,,,,,,,,,,,,,,,,
,,110563,171,1,2024-03-13_00h34.19.847,Memory and Syntax,2023.2.3,MacIntel,62.5,,,,,108.86,110.86,o,1,110.86,110.861,,0,,,110.861,110.862,,110.862,110.862,,0,21,21,21,1,cvmt/test_items/t22.jpeg,o,1.06,,,,,,,,,,,,,,,,,,,,,,,,,,,
,,110563,171,1,2024-03-13_00h34.19.847,Memory and Syntax,2023.2.3,MacIntel,62.5,,,,,110.862,112.861,n,1,112.861,112.861,,0,,,112.862,112.862,,112.862,112.862,,0,22,22,22,1,cvmt/test_items/t23.jpeg,n,0.781,,,,,,,,,,,,,,,,,,,,,,,,,,,
,,110563,171,1,2024-03-13_00h34.19.847,Memory and Syntax,2023.2.3,MacIntel,62.5,,,,,112.862,114.862,n,1,114.862,114.863,,0,,,114.863,114.863,,114.863,114.863,,0,23,23,23,1,cvmt/test_items/t24.jpeg,n,0.635,,,,,,,,,,,,,,,,,,,,,,,,,,,
,,110563,171,1,2024-03-13_00h34.19.847,Memory and Syntax,2023.2.3,MacIntel,62.5,,,,,114.863,116.863,o,1,116.864,116.864,,0,,,116.864,116.864,,116.864,116.864,,0,24,24,24,1,cvmt/test_items/t25.jpeg,o,0.729,,,,,,,,,,,,,,,,,,,,,,,,,,,
,,110563,171,1,2024-03-13_00h34.19.847,Memory and Syntax,2023.2.3,MacIntel,62.5,,,,,116.864,118.865,n,1,118.865,118.865,,0,,,118.865,118.866,,118.866,118.866,,0,25,25,25,1,cvmt/test_items/t26.jpeg,n,0.622,,,,,,,,,,,,,,,,,,,,,,,,,,,
,,110563,171,1,2024-03-13_00h34.19.847,Memory and Syntax,2023.2.3,MacIntel,62.5,,,,,118.866,120.866,o,1,120.866,120.866,,0,,,120.866,120.867,,120.867,120.867,,0,26,26,26,1,cvmt/test_items/t27.jpeg,o,1.019,,,,,,,,,,,,,,,,,,,,,,,,,,,
,,110563,171,1,2024-03-13_00h34.19.847,Memory and Syntax,2023.2.3,MacIntel,62.5,,,,,120.867,122.867,n,1,122.867,122.868,,0,,,122.868,122.868,,122.868,122.869,,0,27,27,27,1,cvmt/test_items/t28.jpeg,n,0.712,,,,,,,,,,,,,,,,,,,,,,,,,,,
,,110563,171,1,2024-03-13_00h34.19.847,Memory and Syntax,2023.2.3,MacIntel,62.5,,,,,122.869,124.868,o,0,124.868,124.869,,0,,,124.869,124.869,,124.869,124.869,,0,28,28,28,1,cvmt/test_items/t29.jpeg,n,0.853,,,,,,,,,,,,,,,,,,,,,,,,,,,
,,110563,171,1,2024-03-13_00h34.19.847,Memory and Syntax,2023.2.3,MacIntel,62.5,,,,,124.87,126.869,o,1,126.869,126.87,,0,,,126.87,126.871,,126.871,126.871,,0,29,29,29,1,cvmt/test_items/t30.jpeg,o,0.666,,,,,,,,,,,,,,,,,,,,,,,,,,,
,,110563,171,1,2024-03-13_00h34.19.847,Memory and Syntax,2023.2.3,MacIntel,62.5,,,,,126.871,128.87,o,1,128.871,128.871,,0,,,128.871,128.871,,128.871,128.871,,0,30,30,30,1,cvmt/test_items/t31.jpeg,o,0.769,,,,,,,,,,,,,,,,,,,,,,,,,,,
,,110563,171,1,2024-03-13_00h34.19.847,Memory and Syntax,2023.2.3,MacIntel,62.5,,,,,128.871,130.872,n,1,130.872,130.872,,0,,,130.872,130.872,,130.872,130.873,,0,31,31,31,1,cvmt/test_items/t32.jpeg,n,0.81,,,,,,,,,,,,,,,,,,,,,,,,,,,
,,110563,171,1,2024-03-13_00h34.19.847,Memory and Syntax,2023.2.3,MacIntel,62.5,,,,,130.873,132.873,n,1,132.873,132.873,,0,,,132.873,132.874,,132.874,132.874,,0,32,32,32,1,cvmt/test_items/t33.jpeg,n,0.68,,,,,,,,,,,,,,,,,,,,,,,,,,,
,,110563,171,1,2024-03-13_00h34.19.847,Memory and Syntax,2023.2.3,MacIntel,62.5,,,,,132.874,134.874,o,1,134.874,134.874,,0,,,134.874,134.875,,134.875,134.875,,0,33,33,33,1,cvmt/test_items/t34.jpeg,o,0.737,,,,,,,,,,,,,,,,,,,,,,,,,,,
,,110563,171,1,2024-03-13_00h34.19.847,Memory and Syntax,2023.2.3,MacIntel,62.5,,,,,134.875,136.875,n,1,136.875,136.875,,0,,,136.875,136.876,,136.876,136.876,,0,34,34,34,1,cvmt/test_items/t35.jpeg,n,0.988,,,,,,,,,,,,,,,,,,,,,,,,,,,
,,110563,171,1,2024-03-13_00h34.19.847,Memory and Syntax,2023.2.3,MacIntel,62.5,,,,,136.876,138.876,o,1,138.876,138.877,,0,,,138.877,138.877,,138.877,138.878,,0,35,35,35,1,cvmt/test_items/t36.jpeg,o,0.796,,,,,,,,,,,,,,,,,,,,,,,,,,,
,,110563,171,1,2024-03-13_00h34.19.847,Memory and Syntax,2023.2.3,MacIntel,62.5,,,,,138.878,140.878,n,1,140.878,140.878,,0,,,140.879,140.879,,140.879,140.879,,0,36,36,36,1,cvmt/test_items/t37.jpeg,n,0.571,,,,,,,,,,,,,,,,,,,,,,,,,,,
,,110563,171,1,2024-03-13_00h34.19.847,Memory and Syntax,2023.2.3,MacIntel,62.5,,,,,140.879,142.879,o,1,142.879,142.879,,0,,,142.879,142.879,,142.879,142.879,,0,37,37,37,1,cvmt/test_items/t38.jpeg,o,0.879,,,,,,,,,,,,,,,,,,,,,,,,,,,
,,110563,171,1,2024-03-13_00h34.19.847,Memory and Syntax,2023.2.3,MacIntel,62.5,,,,,142.879,144.88,n,1,144.88,144.88,,0,,,144.88,144.88,,144.88,144.88,,0,38,38,38,1,cvmt/test_items/t39.jpeg,n,0.713,,,,,,,,,,,,,,,,,,,,,,,,,,,
,,110563,171,1,2024-03-13_00h34.19.847,Memory and Syntax,2023.2.3,MacIntel,62.5,,,,,144.88,146.881,o,1,146.881,146.881,,0,,,146.881,146.881,,146.881,146.881,,0,39,39,39,1,cvmt/test_items/t40.jpeg,o,0.998,,,,,,,,,,,,,,,,,,,,,,,,,,,
,,110563,171,1,2024-03-13_00h34.19.847,Memory and Syntax,2023.2.3,MacIntel,62.5,,,,,146.882,148.882,n,1,148.882,148.882,,0,,,148.882,148.883,,148.883,148.883,,0,40,40,40,1,cvmt/test_items/t41.jpeg,n,0.634,,,,,,,,,,,,,,,,,,,,,,,,,,,
,,110563,171,1,2024-03-13_00h34.19.847,Memory and Syntax,2023.2.3,MacIntel,62.5,,,,,148.883,150.883,o,1,150.883,150.883,,0,,,150.883,150.884,,150.884,150.884,,0,41,41,41,1,cvmt/test_items/t42.jpeg,o,0.98,,,,,,,,,,,,,,,,,,,,,,,,,,,
,,110563,171,1,2024-03-13_00h34.19.847,Memory and Syntax,2023.2.3,MacIntel,62.5,,,,,150.884,152.884,o,1,152.884,152.884,,0,,,152.884,152.885,,152.885,152.885,,0,42,42,42,1,cvmt/test_items/t43.jpeg,o,0.897,,,,,,,,,,,,,,,,,,,,,,,,,,,
,,110563,171,1,2024-03-13_00h34.19.847,Memory and Syntax,2023.2.3,MacIntel,62.5,,,,,152.885,154.885,n,1,154.886,154.886,,0,,,154.886,154.886,,154.886,154.886,,0,43,43,43,1,cvmt/test_items/t44.jpeg,n,0.73,,,,,,,,,,,,,,,,,,,,,,,,,,,
,,110563,171,1,2024-03-13_00h34.19.847,Memory and Syntax,2023.2.3,MacIntel,62.5,,,,,154.887,156.886,o,1,156.887,156.887,,0,,,156.887,156.887,,156.887,156.887,,0,44,44,44,1,cvmt/test_items/t45.jpeg,o,0.738,,,,,,,,,,,,,,,,,,,,,,,,,,,
,,110563,171,1,2024-03-13_00h34.19.847,Memory and Syntax,2023.2.3,MacIntel,62.5,,,,,156.887,158.888,o,1,158.888,158.888,,0,,,158.888,158.889,,158.889,158.889,,0,45,45,45,1,cvmt/test_items/t46.jpeg,o,0.763,,,,,,,,,,,,,,,,,,,,,,,,,,,
,,110563,171,1,2024-03-13_00h34.19.847,Memory and Syntax,2023.2.3,MacIntel,62.5,,,,,158.89,160.889,n,0,160.889,160.889,,0,,,160.889,160.89,,160.89,160.89,,0,46,46,46,1,cvmt/test_items/t47.jpeg,o,1.015,,,,,,,,,,,,,,,,,,,,,,,,,,,
,,110563,171,1,2024-03-13_00h34.19.847,Memory and Syntax,2023.2.3,MacIntel,62.5,,,,,160.89,162.89,n,1,162.891,162.891,,0,,,162.891,162.892,,162.892,162.892,,0,47,47,47,1,cvmt/test_items/t48.jpeg,n,1.045,,,,,,,,,,,,,,,,,,,,,,,,,,,
,,110563,171,1,2024-03-13_00h34.19.847,Memory and Syntax,2023.2.3,MacIntel,62.5,,,,,162.892,164.891,o,1,164.891,164.891,,0,,,164.891,164.892,,164.892,164.892,,0,48,48,48,1,cvmt/test_items/t49.jpeg,o,0.61,,,,,,,,,,,,,,,,,,,,,,,,,,,
,,110563,171,1,2024-03-13_00h34.19.847,Memory and Syntax,2023.2.3,MacIntel,62.5,,,,,164.892,166.892,n,0,166.892,166.893,,0,,,166.893,166.893,,166.893,166.893,,0,49,49,49,1,cvmt/test_items/t50.jpeg,o,0.588,,,,,,,,,,,,,,,,,,,,,,,,,,,
,,110563,171,1,2024-03-13_00h34.19.847,Memory and Syntax,2023.2.3,MacIntel,62.5,,,,,166.893,168.893,o,0,168.894,168.894,,0,,,168.894,168.894,,168.894,168.894,,0,50,50,50,1,cvmt/test_items/t51.jpeg,n,0.896,,,,,,,,,,,,,,,,,,,,,,,,,,,
,,110563,171,1,2024-03-13_00h34.19.847,Memory and Syntax,2023.2.3,MacIntel,62.5,,,,,168.894,170.895,o,1,170.895,170.895,,0,,,170.895,170.895,,170.895,170.895,,0,51,51,51,1,cvmt/test_items/t52.jpeg,o,0.664,,,,,,,,,,,,,,,,,,,,,,,,,,,
,,110563,171,1,2024-03-13_00h34.19.847,Memory and Syntax,2023.2.3,MacIntel,62.5,,,,,170.896,172.896,o,1,172.896,172.896,,0,,,172.896,172.896,,172.897,172.897,,0,52,52,52,1,cvmt/test_items/t53.jpeg,o,0.672,,,,,,,,,,,,,,,,,,,,,,,,,,,
,,110563,171,1,2024-03-13_00h34.19.847,Memory and Syntax,2023.2.3,MacIntel,62.5,,,,,172.897,174.897,o,1,174.897,174.897,,0,,,174.897,174.898,,174.898,174.898,,0,53,53,53,1,cvmt/test_items/t54.jpeg,o,0.697,,,,,,,,,,,,,,,,,,,,,,,,,,,
,,110563,171,1,2024-03-13_00h34.19.847,Memory and Syntax,2023.2.3,MacIntel,62.5,,,,,174.898,176.898,o,1,176.898,176.899,,0,,,176.899,176.899,,176.899,176.9,,0,54,54,54,1,cvmt/test_items/t55.jpeg,o,0.679,,,,,,,,,,,,,,,,,,,,,,,,,,,
,,110563,171,1,2024-03-13_00h34.19.847,Memory and Syntax,2023.2.3,MacIntel,62.5,,,,,176.9,178.899,n,0,178.899,178.899,,0,,,178.899,178.9,,178.9,178.9,,0,55,55,55,1,cvmt/test_items/t56.jpeg,o,0.765,,,,,,,,,,,,,,,,,,,,,,,,,,,
,,110563,171,1,2024-03-13_00h34.19.847,Memory and Syntax,2023.2.3,MacIntel,62.5,,,,,178.9,180.9,o,1,180.9,180.901,,0,,,180.901,180.901,,180.901,180.901,,0,56,56,56,1,cvmt/test_items/t57.jpeg,o,0.622,,,,,,,,,,,,,,,,,,,,,,,,,,,
,,110563,171,1,2024-03-13_00h34.19.847,Memory and Syntax,2023.2.3,MacIntel,62.5,,,,,180.901,182.902,n,1,182.902,182.902,,0,,,182.902,182.902,,182.902,182.902,,0,57,57,57,1,cvmt/test_items/t58.jpeg,n,0.673,,,,,,,,,,,,,,,,,,,,,,,,,,,
,,110563,171,1,2024-03-13_00h34.19.847,Memory and Syntax,2023.2.3,MacIntel,62.5,,,,,182.902,184.903,n,1,184.903,184.903,,0,,,184.903,184.903,,184.903,184.903,,0,58,58,58,1,cvmt/test_items/t59.jpeg,n,0.732,,,,,,,,,,,,,,,,,,,,,,,,,,,
,,110563,171,1,2024-03-13_00h34.19.847,Memory and Syntax,2023.2.3,MacIntel,62.5,,,,,184.903,186.906,o,1,186.906,186.906,,0,,,186.906,186.907,,186.907,186.907,,0,59,59,59,1,cvmt/test_items/t60.jpeg,o,0.946,,,,,,,,,,,,,,,,,,,,,,,,,,,
,,110563,171,1,2024-03-13_00h34.19.847,Memory and Syntax,2023.2.3,MacIntel,62.5,,,,,186.907,188.905,n,0,188.905,188.905,,0,,,188.905,188.905,,188.905,188.906,,0,60,60,60,1,cvmt/test_items/t61.jpeg,o,0.747,,,,,,,,,,,,,,,,,,,,,,,,,,,
,,110563,171,1,2024-03-13_00h34.19.847,Memory and Syntax,2023.2.3,MacIntel,62.5,,,,,188.906,190.906,o,1,190.906,190.906,,0,,,190.906,190.907,,190.907,190.907,,0,61,61,61,1,cvmt/test_items/t62.jpeg,o,0.94,,,,,,,,,,,,,,,,,,,,,,,,,,,
,,110563,171,1,2024-03-13_00h34.19.847,Memory and Syntax,2023.2.3,MacIntel,62.5,,,,,190.907,192.907,n,0,192.907,192.908,,0,,,192.908,192.908,,192.908,192.908,,0,62,62,62,1,cvmt/test_items/t63.jpeg,o,0.914,,,,,,,,,,,,,,,,,,,,,,,,,,,
,,110563,171,1,2024-03-13_00h34.19.847,Memory and Syntax,2023.2.3,MacIntel,62.5,,,,,192.908,194.909,n,0,194.909,194.909,,0,,,194.909,194.91,,194.91,194.911,,0,63,63,63,1,cvmt/test_items/t64.jpeg,o,0.823,,,,,,,,,,,,,,,,,,,,,,,,,,,
,,110563,171,1,2024-03-13_00h34.19.847,Memory and Syntax,2023.2.3,MacIntel,62.5,,,,,194.911,196.91,o,1,196.91,196.91,,0,,,196.91,196.911,,196.911,196.911,,0,64,64,64,1,cvmt/test_items/t65.jpeg,o,0.647,,,,,,,,,,,,,,,,,,,,,,,,,,,
,,110563,171,1,2024-03-13_00h34.19.847,Memory and Syntax,2023.2.3,MacIntel,62.5,,,,,196.911,198.911,o,1,198.911,198.911,,0,,,198.911,198.912,,198.912,198.912,,0,65,65,65,1,cvmt/test_items/t66.jpeg,o,0.78,,,,,,,,,,,,,,,,,,,,,,,,,,,
,,110563,171,1,2024-03-13_00h34.19.847,Memory and Syntax,2023.2.3,MacIntel,62.5,,,,,198.912,200.912,n,1,200.912,200.912,,0,,,200.912,200.913,,200.913,200.913,,0,66,66,66,1,cvmt/test_items/t67.jpeg,n,0.805,,,,,,,,,,,,,,,,,,,,,,,,,,,
,,110563,171,1,2024-03-13_00h34.19.847,Memory and Syntax,2023.2.3,MacIntel,62.5,,,,,200.913,202.913,n,0,202.913,202.913,,0,,,202.913,202.914,,202.914,202.914,,0,67,67,67,1,cvmt/test_items/t68.jpeg,o,0.676,,,,,,,,,,,,,,,,,,,,,,,,,,,
,,110563,171,1,2024-03-13_00h34.19.847,Memory and Syntax,2023.2.3,MacIntel,62.5,,,,,202.915,204.914,n,0,204.914,204.914,,0,,,204.915,204.915,,204.915,204.915,,0,68,68,68,1,cvmt/test_items/t69.jpeg,o,0.757,,,,,,,,,,,,,,,,,,,,,,,,,,,
,,110563,171,1,2024-03-13_00h34.19.847,Memory and Syntax,2023.2.3,MacIntel,62.5,,,,,204.915,206.915,n,0,206.915,206.916,,0,,,206.916,206.916,,206.916,206.916,,0,69,69,69,1,cvmt/test_items/t70.jpeg,o,0.94,,,,,,,,,,,,,,,,,,,,,,,,,,,
,,110563,171,1,2024-03-13_00h34.19.847,Memory and Syntax,2023.2.3,MacIntel,62.5,,,,,206.916,208.916,o,0,208.917,208.917,,0,,,208.917,208.917,,208.917,208.917,,0,70,70,70,1,cvmt/test_items/t71.jpeg,n,0.758,,,,,,,,,,,,,,,,,,,,,,,,,,,
,,110563,171,1,2024-03-13_00h34.19.847,Memory and Syntax,2023.2.3,MacIntel,62.5,,,,,208.917,210.918,o,1,210.918,210.918,,0,,,210.918,210.918,,210.918,210.918,,0,71,71,71,1,cvmt/test_items/t72.jpeg,o,0.641,,,,,,,,,,,,,,,,,,,,,,,,,,,
,,110563,171,1,2024-03-13_00h34.19.847,Memory and Syntax,2023.2.3,MacIntel,62.5,,,,,210.919,212.919,o,1,212.919,212.919,,0,,,212.919,212.92,,212.92,212.92,,0,72,72,72,1,cvmt/test_items/t73.jpeg,o,0.64,,,,,,,,,,,,,,,,,,,,,,,,,,,
,,110563,171,1,2024-03-13_00h34.19.847,Memory and Syntax,2023.2.3,MacIntel,62.5,,,,,212.92,214.92,n,0,214.92,214.92,,0,,,214.92,214.92,,214.92,214.921,,0,73,73,73,1,cvmt/test_items/t74.jpeg,o,0.841,,,,,,,,,,,,,,,,,,,,,,,,,,,
,,110563,171,1,2024-03-13_00h34.19.847,Memory and Syntax,2023.2.3,MacIntel,62.5,,,,,214.921,216.921,n,0,216.921,216.921,,0,,,216.921,216.922,,216.922,216.922,,0,74,74,74,1,cvmt/test_items/t75.jpeg,o,1.04,,,,,,,,,,,,,,,,,,,,,,,,,,,
,,110563,171,1,2024-03-13_00h34.19.847,Memory and Syntax,2023.2.3,MacIntel,62.5,,,,,216.922,218.922,o,1,218.922,218.922,,0,,,218.922,218.923,,218.923,218.923,,0,75,75,75,1,cvmt/test_items/t76.jpeg,o,0.738,,,,,,,,,,,,,,,,,,,,,,,,,,,
,,110563,171,1,2024-03-13_00h34.19.847,Memory and Syntax,2023.2.3,MacIntel,62.5,,,,,218.923,220.923,n,0,220.923,220.924,,0,,,220.924,220.924,,220.924,220.924,,0,76,76,76,1,cvmt/test_items/t77.jpeg,o,0.896,,,,,,,,,,,,,,,,,,,,,,,,,,,
,,110563,171,1,2024-03-13_00h34.19.847,Memory and Syntax,2023.2.3,MacIntel,62.5,,,,,220.924,222.925,o,1,222.925,222.925,,0,,,222.925,222.926,,222.926,222.926,,0,77,77,77,1,cvmt/test_items/t78.jpeg,o,0.755,,,,,,,,,,,,,,,,,,,,,,,,,,,
,,110563,171,1,2024-03-13_00h34.19.847,Memory and Syntax,2023.2.3,MacIntel,62.5,,,,,222.926,224.926,n,0,224.926,224.926,,0,,,224.926,224.926,,224.926,224.926,,0,78,78,78,1,cvmt/test_items/t79.jpeg,o,0.579,,,,,,,,,,,,,,,,,,,,,,,,,,,
,,110563,171,1,2024-03-13_00h34.19.847,Memory and Syntax,2023.2.3,MacIntel,62.5,,,,,224.927,226.929,n,1,226.929,226.929,,0,,,226.929,226.929,,226.929,226.929,,0,79,79,79,1,cvmt/test_items/t80.jpeg,n,0.895,,,,,,,,,,,,,,,,,,,,,,,,,,,
,,110563,171,1,2024-03-13_00h34.19.847,Memory and Syntax,2023.2.3,MacIntel,62.5,,,,,226.93,228.928,n,0,228.928,228.928,,0,,,228.928,228.928,,228.928,228.929,,0,80,80,80,1,cvmt/test_items/t81.jpeg,o,0.794,,,,,,,,,,,,,,,,,,,,,,,,,,,
,,110563,171,1,2024-03-13_00h34.19.847,Memory and Syntax,2023.2.3,MacIntel,62.5,,,,,228.929,230.929,o,1,230.929,230.929,,0,,,230.929,230.93,,230.93,230.93,,0,81,81,81,1,cvmt/test_items/t82.jpeg,o,0.59,,,,,,,,,,,,,,,,,,,,,,,,,,,
,,110563,171,1,2024-03-13_00h34.19.847,Memory and Syntax,2023.2.3,MacIntel,62.5,,,,,230.93,232.93,n,0,232.93,232.93,,0,,,232.93,232.931,,232.931,232.931,,0,82,82,82,1,cvmt/test_items/t83.jpeg,o,0.673,,,,,,,,,,,,,,,,,,,,,,,,,,,
,,110563,171,1,2024-03-13_00h34.19.847,Memory and Syntax,2023.2.3,MacIntel,62.5,,,,,232.931,234.931,o,1,234.932,234.932,,0,,,234.932,234.932,,234.932,234.932,,0,83,83,83,1,cvmt/test_items/t84.jpeg,o,0.814,,,,,,,,,,,,,,,,,,,,,,,,,,,
,,110563,171,1,2024-03-13_00h34.19.847,Memory and Syntax,2023.2.3,MacIntel,62.5,,,,,234.932,236.933,o,1,236.933,236.933,,0,,,236.933,236.933,,236.933,236.933,,0,84,84,84,1,cvmt/test_items/t85.jpeg,o,1.037,,,,,,,,,,,,,,,,,,,,,,,,,,,
,,110563,171,1,2024-03-13_00h34.19.847,Memory and Syntax,2023.2.3,MacIntel,62.5,,,,,236.933,238.934,o,1,238.934,238.934,,0,,,238.934,238.934,,238.934,238.934,,0,85,85,85,1,cvmt/test_items/t86.jpeg,o,0.657,,,,,,,,,,,,,,,,,,,,,,,,,,,
,,110563,171,1,2024-03-13_00h34.19.847,Memory and Syntax,2023.2.3,MacIntel,62.5,,,,,238.935,240.935,n,0,240.935,240.935,,0,,,240.935,240.935,,240.935,240.936,,0,86,86,86,1,cvmt/test_items/t87.jpeg,o,0.644,,,,,,,,,,,,,,,,,,,,,,,,,,,
,,110563,171,1,2024-03-13_00h34.19.847,Memory and Syntax,2023.2.3,MacIntel,62.5,,,,,240.936,242.937,n,1,242.937,242.937,,0,,,242.937,242.937,,242.937,242.937,,0,87,87,87,1,cvmt/test_items/t88.jpeg,n,0.656,,,,,,,,,,,,,,,,,,,,,,,,,,,
,,110563,171,1,2024-03-13_00h34.19.847,Memory and Syntax,2023.2.3,MacIntel,62.5,,,,,242.937,244.937,o,0,244.937,244.937,,0,,,244.937,244.938,,244.938,244.938,,0,88,88,88,1,cvmt/test_items/t89.jpeg,n,0.713,,,,,,,,,,,,,,,,,,,,,,,,,,,
,,110563,171,1,2024-03-13_00h34.19.847,Memory and Syntax,2023.2.3,MacIntel,62.5,,,,,244.938,246.938,o,1,246.939,246.939,,0,,,246.939,246.939,,246.939,246.939,,0,89,89,89,1,cvmt/test_items/t90.jpeg,o,0.671,,,,,,,,,,,,,,,,,,,,,,,,,,,
,,110563,171,1,2024-03-13_00h34.19.847,Memory and Syntax,2023.2.3,MacIntel,62.5,,,,,246.939,248.94,n,0,248.94,248.94,,0,,,248.94,248.94,,248.94,248.94,,0,90,90,90,1,cvmt/test_items/t91.jpeg,o,0.678,,,,,,,,,,,,,,,,,,,,,,,,,,,
,,110563,171,1,2024-03-13_00h34.19.847,Memory and Syntax,2023.2.3,MacIntel,62.5,,,,,248.941,250.941,o,1,250.941,250.941,,0,,,250.941,250.941,,250.941,250.941,,0,91,91,91,1,cvmt/test_items/t92.jpeg,o,1.023,,,,,,,,,,,,,,,,,,,,,,,,,,,
,,110563,171,1,2024-03-13_00h34.19.847,Memory and Syntax,2023.2.3,MacIntel,62.5,,,,,250.942,252.942,o,1,252.942,252.943,,0,,,252.943,252.943,,252.943,252.943,,0,92,92,92,1,cvmt/test_items/t93.jpeg,o,0.743,,,,,,,,,,,,,,,,,,,,,,,,,,,
,,110563,171,1,2024-03-13_00h34.19.847,Memory and Syntax,2023.2.3,MacIntel,62.5,,,,,252.944,254.943,n,0,254.943,254.943,,0,,,254.943,254.944,,254.944,254.944,,0,93,93,93,1,cvmt/test_items/t94.jpeg,o,0.784,,,,,,,,,,,,,,,,,,,,,,,,,,,
,,110563,171,1,2024-03-13_00h34.19.847,Memory and Syntax,2023.2.3,MacIntel,62.5,,,,,254.944,256.944,n,0,256.944,256.944,,0,,,256.944,256.945,,256.945,256.945,,0,94,94,94,1,cvmt/test_items/t95.jpeg,o,0.839,,,,,,,,,,,,,,,,,,,,,,,,,,,
,,110563,171,1,2024-03-13_00h34.19.847,Memory and Syntax,2023.2.3,MacIntel,62.5,,,,,256.945,258.945,o,1,258.945,258.945,,0,,,258.945,258.946,,258.946,258.946,,0,95,95,95,1,cvmt/test_items/t96.jpeg,o,1.13,,,,,,,,,,,,,,,,,,,,,,,,,,,
,,110563,171,1,2024-03-13_00h34.19.847,Memory and Syntax,2023.2.3,MacIntel,62.5,,,,,258.946,260.947,n,0,260.947,260.947,,0,,,260.947,260.947,,260.947,260.947,,0,96,96,96,1,cvmt/test_items/t97.jpeg,o,0.681,,,,,,,,,,,,,,,,,,,,,,,,,,,
,,110563,171,1,2024-03-13_00h34.19.847,Memory and Syntax,2023.2.3,MacIntel,62.5,,,,,260.948,262.948,n,1,262.948,262.948,,0,,,262.948,262.948,,262.948,262.948,,0,97,97,97,1,cvmt/test_items/t98.jpeg,n,0.652,,,,,,,,,,,,,,,,,,,,,,,,,,,
,,110563,171,1,2024-03-13_00h34.19.847,Memory and Syntax,2023.2.3,MacIntel,62.5,,,,,262.948,264.949,o,1,264.949,264.949,,0,,,264.949,264.949,,264.949,264.949,,0,98,98,98,1,cvmt/test_items/t99.jpeg,o,0.789,,,,,,,,,,,,,,,,,,,,,,,,,,,
,,110563,171,1,2024-03-13_00h34.19.847,Memory and Syntax,2023.2.3,MacIntel,62.5,,,,,264.95,266.95,o,1,266.95,266.95,,0,,,266.95,266.95,,266.95,266.951,,0,99,99,99,1,cvmt/test_items/t100.jpeg,o,0.729,,,,,,,,,,,,,,,,,,,,,,,,,,,
,,110563,171,1,2024-03-13_00h34.19.847,Memory and Syntax,2023.2.3,MacIntel,62.5,,,,,266.951,268.951,n,0,268.951,268.951,,0,,,268.951,268.952,,268.952,268.952,,0,100,100,100,1,cvmt/test_items/t101.jpeg,o,0.822,,,,,,,,,,,,,,,,,,,,,,,,,,,
,,110563,171,1,2024-03-13_00h34.19.847,Memory and Syntax,2023.2.3,MacIntel,62.5,,,,,268.952,270.952,o,1,270.952,270.953,,0,,,270.953,270.953,,270.953,270.954,,0,101,101,101,1,cvmt/test_items/t102.jpeg,o,0.724,,,,,,,,,,,,,,,,,,,,,,,,,,,
,,110563,171,1,2024-03-13_00h34.19.847,Memory and Syntax,2023.2.3,MacIntel,62.5,,,,,270.954,272.953,o,1,272.953,272.954,,0,,,272.954,272.954,,272.954,272.954,,0,102,102,102,1,cvmt/test_items/t103.jpeg,o,0.953,,,,,,,,,,,,,,,,,,,,,,,,,,,
,,110563,171,1,2024-03-13_00h34.19.847,Memory and Syntax,2023.2.3,MacIntel,62.5,,,,,272.954,274.955,o,1,274.955,274.955,,0,,,274.955,274.955,,274.955,274.955,,0,103,103,103,1,cvmt/test_items/t104.jpeg,o,0.62,,,,,,,,,,,,,,,,,,,,,,,,,,,
,,110563,171,1,2024-03-13_00h34.19.847,Memory and Syntax,2023.2.3,MacIntel,62.5,,,,,274.956,276.956,n,1,276.956,276.956,,0,,,276.956,276.956,,276.956,276.957,,0,104,104,104,1,cvmt/test_items/t105.jpeg,n,0.673,,,,,,,,,,,,,,,,,,,,,,,,,,,
,,110563,171,1,2024-03-13_00h34.19.847,Memory and Syntax,2023.2.3,MacIntel,62.5,,,,,276.957,278.957,o,1,278.957,278.957,,0,,,278.957,278.957,,278.957,278.957,,0,105,105,105,1,cvmt/test_items/t106.jpeg,o,0.713,,,,,,,,,,,,,,,,,,,,,,,,,,,
,,110563,171,1,2024-03-13_00h34.19.847,Memory and Syntax,2023.2.3,MacIntel,62.5,,,,,278.957,280.958,o,1,280.958,280.958,,0,,,280.958,280.959,,280.959,280.959,,0,106,106,106,1,cvmt/test_items/t107.jpeg,o,0.698,,,,,,,,,,,,,,,,,,,,,,,,,,,
,,110563,171,1,2024-03-13_00h34.19.847,Memory and Syntax,2023.2.3,MacIntel,62.5,,,,,280.959,282.959,n,0,282.959,282.959,,0,,,282.959,282.96,,282.96,282.96,,0,107,107,107,1,cvmt/test_items/t108.jpeg,o,0.846,,,,,,,,,,,,,,,,,,,,,,,,,,,
,,110563,171,1,2024-03-13_00h34.19.847,Memory and Syntax,2023.2.3,MacIntel,62.5,,,,,282.96,284.96,n,0,284.96,284.961,,0,,,284.961,284.961,,284.961,284.961,,0,108,108,108,1,cvmt/test_items/t109.jpeg,o,0.989,,,,,,,,,,,,,,,,,,,,,,,,,,,
,,110563,171,1,2024-03-13_00h34.19.847,Memory and Syntax,2023.2.3,MacIntel,62.5,,,,,284.961,286.961,n,0,286.962,286.962,,0,,,286.962,286.962,,286.962,286.962,,0,109,109,109,1,cvmt/test_items/t110.jpeg,o,0.856,,,,,,,,,,,,,,,,,,,,,,,,,,,
,,110563,171,1,2024-03-13_00h34.19.847,Memory and Syntax,2023.2.3,MacIntel,62.5,,,,,286.962,288.962,o,1,288.962,288.963,,0,,,288.963,288.963,,288.963,288.963,,0,110,110,110,1,cvmt/test_items/t111.jpeg,o,0.747,,,,,,,,,,,,,,,,,,,,,,,,,,,
,,110563,171,1,2024-03-13_00h34.19.847,Memory and Syntax,2023.2.3,MacIntel,62.5,,,,,288.963,290.964,o,1,290.964,290.964,,0,,,290.964,290.964,,290.964,290.964,,0,111,111,111,1,cvmt/test_items/t112.jpeg,o,0.838,,,,,,,,,,,,,,,,,,,,,,,,,,,
,,110563,171,1,2024-03-13_00h34.19.847,Memory and Syntax,2023.2.3,MacIntel,62.5,,,,,290.965,292.965,o,0,292.965,292.965,,0,,,292.965,292.965,,292.965,292.965,,0,112,112,112,1,cvmt/test_items/t113.jpeg,n,0.993,,,,,,,,,,,,,,,,,,,,,,,,,,,
,,110563,171,1,2024-03-13_00h34.19.847,Memory and Syntax,2023.2.3,MacIntel,62.5,,,,,292.966,294.966,n,0,294.966,294.966,,0,,,294.966,294.966,,294.966,294.967,,0,113,113,113,1,cvmt/test_items/t114.jpeg,o,0.919,,,,,,,,,,,,,,,,,,,,,,,,,,,
,,110563,171,1,2024-03-13_00h34.19.847,Memory and Syntax,2023.2.3,MacIntel,62.5,,,,,294.967,296.967,o,1,296.967,296.967,,0,,,296.967,296.968,,296.968,296.968,,0,114,114,114,1,cvmt/test_items/t115.jpeg,o,0.825,,,,,,,,,,,,,,,,,,,,,,,,,,,
,,110563,171,1,2024-03-13_00h34.19.847,Memory and Syntax,2023.2.3,MacIntel,62.5,,,,,296.968,298.968,o,1,298.968,298.969,,0,,,298.969,298.969,,298.969,298.969,,0,115,115,115,1,cvmt/test_items/t116.jpeg,o,0.917,,,,,,,,,,,,,,,,,,,,,,,,,,,
,,110563,171,1,2024-03-13_00h34.19.847,Memory and Syntax,2023.2.3,MacIntel,62.5,,,,,298.969,300.969,o,1,300.969,300.97,,0,,,300.97,300.97,,300.97,300.97,,0,116,116,116,1,cvmt/test_items/t117.jpeg,o,0.61,,,,,,,,,,,,,,,,,,,,,,,,,,,
,,110563,171,1,2024-03-13_00h34.19.847,Memory and Syntax,2023.2.3,MacIntel,62.5,,,,,300.97,302.971,o,1,302.971,302.971,,0,,,302.971,302.971,,302.971,302.971,,0,117,117,117,1,cvmt/test_items/t118.jpeg,o,0.635,,,,,,,,,,,,,,,,,,,,,,,,,,,
,,110563,171,1,2024-03-13_00h34.19.847,Memory and Syntax,2023.2.3,MacIntel,62.5,,,,,302.971,304.972,o,1,304.972,304.972,,0,,,304.972,304.972,,304.972,304.972,,0,118,118,118,1,cvmt/test_items/t119.jpeg,o,0.68,,,,,,,,,,,,,,,,,,,,,,,,,,,
,,110563,171,1,2024-03-13_00h34.19.847,Memory and Syntax,2023.2.3,MacIntel,62.5,,,,,304.973,306.973,o,1,306.973,306.973,,0,,,306.973,306.973,,306.973,306.974,,0,119,119,119,1,cvmt/test_items/t120.jpeg,o,0.594,,,,,,,,,,,,,,,,,,,,,,,,,,,
,,110563,171,1,2024-03-13_00h34.19.847,Memory and Syntax,2023.2.3,MacIntel,62.5,,,,,306.974,308.974,o,1,308.974,308.974,,0,,,308.974,308.975,,308.975,308.975,,0,120,120,120,1,cvmt/test_items/t121.jpeg,o,0.695,,,,,,,,,,,,,,,,,,,,,,,,,,,
,,110563,171,1,2024-03-13_00h34.19.847,Memory and Syntax,2023.2.3,MacIntel,62.5,,,,,308.975,310.975,o,1,310.975,310.976,,0,,,310.976,310.976,,310.976,310.977,,0,121,121,121,1,cvmt/test_items/t122.jpeg,o,0.618,,,,,,,,,,,,,,,,,,,,,,,,,,,
,,110563,171,1,2024-03-13_00h34.19.847,Memory and Syntax,2023.2.3,MacIntel,62.5,,,,,310.977,312.977,n,1,312.977,312.977,,0,,,312.977,312.977,,312.977,312.977,,0,122,122,122,1,cvmt/test_items/t123.jpeg,n,0.778,,,,,,,,,,,,,,,,,,,,,,,,,,,
,,110563,171,1,2024-03-13_00h34.19.847,Memory and Syntax,2023.2.3,MacIntel,62.5,,,,,312.978,314.978,o,1,314.978,314.978,,0,,,314.978,314.979,,314.979,314.979,,0,123,123,123,1,cvmt/test_items/t124.jpeg,o,1.102,,,,,,,,,,,,,,,,,,,,,,,,,,,
,,110563,171,1,2024-03-13_00h34.19.847,Memory and Syntax,2023.2.3,MacIntel,62.5,,,,,314.979,316.979,o,1,316.979,316.979,,0,,,316.979,316.979,,316.979,316.979,,0,124,124,124,1,cvmt/test_items/t125.jpeg,o,0.562,,,,,,,,,,,,,,,,,,,,,,,,,,,
,,110563,171,1,2024-03-13_00h34.19.847,Memory and Syntax,2023.2.3,MacIntel,62.5,,,,,316.98,318.98,o,1,318.98,318.98,,0,,,318.98,318.981,,318.981,318.981,,0,125,125,125,1,cvmt/test_items/t126.jpeg,o,0.486,,,,,,,,,,,,,,,,,,,,,,,,,,,
,,110563,171,1,2024-03-13_00h34.19.847,Memory and Syntax,2023.2.3,MacIntel,62.5,,,,,318.981,320.983,n,0,320.983,320.984,,0,,,320.984,320.984,,320.984,320.984,,0,126,126,126,1,cvmt/test_items/t127.jpeg,o,0.497,,,,,,,,,,,,,,,,,,,,,,,,,,,
,,110563,171,1,2024-03-13_00h34.19.847,Memory and Syntax,2023.2.3,MacIntel,62.5,,,,,320.984,322.982,o,1,322.982,322.982,,0,,,322.982,322.983,,322.983,322.983,,0,127,127,127,1,cvmt/test_items/t128.jpeg,o,0.71,,,,,,,,,,,,,,,,,,,,,,,,,,,
,,110563,171,1,2024-03-13_00h34.19.847,Memory and Syntax,2023.2.3,MacIntel,62.5,,,,,322.983,324.983,o,1,324.983,324.983,,0,,,324.983,324.984,,324.984,324.984,,0,128,128,128,1,cvmt/test_items/t129.jpeg,o,0.68,,,,,,,,,,,,,,,,,,,,,,,,,,,
,,110563,171,1,2024-03-13_00h34.19.847,Memory and Syntax,2023.2.3,MacIntel,62.5,,,,,324.984,326.984,o,1,326.985,326.985,,0,,,326.985,326.985,,326.985,326.985,,0,129,129,129,1,cvmt/test_items/t130.jpeg,o,0.591,,,,,,,,,,,,,,,,,,,,,,,,,,,
,,110563,171,1,2024-03-13_00h34.19.847,Memory and Syntax,2023.2.3,MacIntel,62.5,,,,,326.985,328.986,o,0,328.986,328.986,,0,,,328.986,328.987,,328.987,328.987,,0,130,130,130,1,cvmt/test_items/t131.jpeg,n,0.614,,,,,,,,,,,,,,,,,,,,,,,,,,,
,,110563,171,1,2024-03-13_00h34.19.847,Memory and Syntax,2023.2.3,MacIntel,62.5,,,,,328.987,330.987,o,1,330.987,330.987,,0,,,330.987,330.987,,330.987,330.987,,0,131,131,131,1,cvmt/test_items/t132.jpeg,o,0.771,,,,,,,,,,,,,,,,,,,,,,,,,,,
,,110563,171,1,2024-03-13_00h34.19.847,Memory and Syntax,2023.2.3,MacIntel,62.5,,,,,330.988,332.988,o,1,332.988,332.988,,0,,,332.988,332.988,,332.988,332.988,,0,132,132,132,1,cvmt/test_items/t133.jpeg,o,0.88,,,,,,,,,,,,,,,,,,,,,,,,,,,
,,110563,171,1,2024-03-13_00h34.19.847,Memory and Syntax,2023.2.3,MacIntel,62.5,,,,,332.989,334.989,o,1,334.989,334.989,,0,,,334.989,334.989,,334.989,334.989,,0,133,133,133,1,cvmt/test_items/t134.jpeg,o,0.584,,,,,,,,,,,,,,,,,,,,,,,,,,,
,,110563,171,1,2024-03-13_00h34.19.847,Memory and Syntax,2023.2.3,MacIntel,62.5,,,,,334.99,336.99,o,1,336.99,336.991,,0,,,336.991,336.991,,336.991,336.992,,0,134,134,134,1,cvmt/test_items/t135.jpeg,o,1.045,,,,,,,,,,,,,,,,,,,,,,,,,,,
,,110563,171,1,2024-03-13_00h34.19.847,Memory and Syntax,2023.2.3,MacIntel,62.5,,,,,,,,,,,,,,,,,,,,,,,,,,,,,,,,,,336.992,336.992,0,337,339.331,space,2.273,,339.338,343.695,2,4.349,0,0,0,0,1,1,1,WOV,8B,Practiced the virtuoso many pieces.
,,110563,171,1,2024-03-13_00h34.19.847,Memory and Syntax,2023.2.3,MacIntel,62.5,,,,,,,,,,,,,,,,,,,,,,,,,,,,,,,,,,,,,,,,,,343.695,346.229,2,2.524,0,1,1,1,1,1,2,AS,6A,The rickety old boat sank.
,,110563,171,1,2024-03-13_00h34.19.847,Memory and Syntax,2023.2.3,MacIntel,62.5,,,,,,,,,,,,,,,,,,,,,,,,,,,,,,,,,,,,,,,,,,346.229,349.131,5.7,2.893,0,2,2,2,1,1,3,WO,6A,The waiter set the table promptly.
,,110563,171,1,2024-03-13_00h34.19.847,Memory and Syntax,2023.2.3,MacIntel,62.5,,,,,,,,,,,,,,,,,,,,,,,,,,,,,,,,,,,,,,,,,,349.132,353.866,1.1,4.726,0,3,3,3,1,1,4,control,12B,They anticipate that everybody you do will contact Megan.
,,110563,171,1,2024-03-13_00h34.19.847,Memory and Syntax,2023.2.3,MacIntel,62.5,,,,,,,,,,,,,,,,,,,,,,,,,,,,,,,,,,,,,,,,,,353.866,356.534,5,2.66,0,4,4,4,1,1,5,ASV,11B,The cat moved himself away.
,,110563,171,1,2024-03-13_00h34.19.847,Memory and Syntax,2023.2.3,MacIntel,62.5,,,,,,,,,,,,,,,,,,,,,,,,,,,,,,,,,,,,,,,,,,356.535,359.254,2,2.718,0,5,5,5,1,1,6,ASV,7B,She laughed herself at the dog.
,,110563,171,1,2024-03-13_00h34.19.847,Memory and Syntax,2023.2.3,MacIntel,62.5,,,,,,,,,,,,,,,,,,,,,,,,,,,,,,,,,,,,,,,,,,359.255,363.625,6.8,4.368,0,6,6,6,1,1,7,AS,5A,The professor cried about the article.
,,110563,171,1,2024-03-13_00h34.19.847,Memory and Syntax,2023.2.3,MacIntel,62.5,,,,,,,,,,,,,,,,,,,,,,,,,,,,,,,,,,,,,,,,,,363.625,366.178,6,2.539,0,7,7,7,1,1,8,WO,5A,My sibling expected a good grade.
,,110563,171,1,2024-03-13_00h34.19.847,Memory and Syntax,2023.2.3,MacIntel,62.5,,,,,,,,,,,,,,,,,,,,,,,,,,,,,,,,,,,,,,,,,,366.178,370.045,5.9,3.864,0,8,8,8,1,1,9,filler,1A,There has been a man considered violent.
,,110563,171,1,2024-03-13_00h34.19.847,Memory and Syntax,2023.2.3,MacIntel,62.5,,,,,,,,,,,,,,,,,,,,,,,,,,,,,,,,,,,,,,,,,,370.045,372.593,6.1,2.54,0,9,9,9,1,1,10,AS,2A,Taylor subscribed to the channel.
,,110563,171,1,2024-03-13_00h34.19.847,Memory and Syntax,2023.2.3,MacIntel,62.5,,,,,,,,,,,,,,,,,,,,,,,,,,,,,,,,,,,,,,,,,,372.594,378.917,1.9,6.322,0,10,10,10,1,1,11,control,10B,There might fossils seem to be several miles underground.
,,110563,171,1,2024-03-13_00h34.19.847,Memory and Syntax,2023.2.3,MacIntel,62.5,,,,,,,,,,,,,,,,,,,,,,,,,,,,,,,,,,,,,,,,,,378.917,381.449,5.4,2.523,0,11,11,11,1,1,12,ASV,8B,Esperanza sighed herself at the desk.
,,110563,171,1,2024-03-13_00h34.19.847,Memory and Syntax,2023.2.3,MacIntel,62.5,,,,,,,,,,,,,,,,,,,,,,,,,,,,,,,,,,,,,,,,,,381.449,384.317,5,2.86,0,12,12,12,1,1,13,WOV,9B,Read we five pages each night.
,,110563,171,1,2024-03-13_00h34.19.847,Memory and Syntax,2023.2.3,MacIntel,62.5,,,,,,,,,,,,,,,,,,,,,,,,,,,,,,,,,,,,,,,,,,384.318,389.189,2,4.868,0,13,13,13,1,1,14,WOV,7B,Frightened the eerie sound Seth.
,,110563,171,1,2024-03-13_00h34.19.847,Memory and Syntax,2023.2.3,MacIntel,62.5,,,,,,,,,,,,,,,,,,,,,,,,,,,,,,,,,,,,,,,,,,389.19,392.775,5.4,3.582,0,14,14,14,1,1,15,filler,2A,"Arty is sick, and Mark is too."
,,110563,171,1,2024-03-13_00h34.19.847,Memory and Syntax,2023.2.3,MacIntel,62.5,,,,,,,,,,,,,,,,,,,,,,,,,,,,,,,,,,,,,,,,,,392.775,395.91,5.9,3.132,0,15,15,15,1,1,16,ASV,9B,The prime minister confessed herself to bribery.
,,110563,171,1,2024-03-13_00h34.19.847,Memory and Syntax,2023.2.3,MacIntel,62.5,,,,,,,,,,,,,,,,,,,,,,,,,,,,,,,,,,,,,,,,,,395.91,398.628,4,2.715,0,16,16,16,1,1,17,control,7B,Olivia told Gregory when to exonerate herself.
,,110563,171,1,2024-03-13_00h34.19.847,Memory and Syntax,2023.2.3,MacIntel,62.5,,,,,,,,,,,,,,,,,,,,,,,,,,,,,,,,,,,,,,,,,,398.629,402.114,6,3.481,0,17,17,17,1,1,18,control,11B,There are likely students to be in the library.
,,110563,171,1,2024-03-13_00h34.19.847,Memory and Syntax,2023.2.3,MacIntel,62.5,,,,,,,,,,,,,,,,,,,,,,,,,,,,,,,,,,,,,,,,,,402.114,404.599,6,2.482,0,18,18,18,1,1,19,filler,5A,I told Mandy who would win the election.
,,110563,171,1,2024-03-13_00h34.19.847,Memory and Syntax,2023.2.3,MacIntel,62.5,,,,,,,,,,,,,,,,,,,,,,,,,,,,,,,,,,,,,,,,,,404.6,407.299,5.2,2.697,0,19,19,19,1,1,20,control,9B,We consider there three problems.
,,110563,171,1,2024-03-13_00h34.19.847,Memory and Syntax,2023.2.3,MacIntel,62.5,,,,,,,,,,,,,,,,,,,,,,,,,,,,,,,,,,,,,,,,,,407.299,410.485,2.5,3.183,0,20,20,20,1,1,21,control,8B,She called Victor and yelled at.
,,110563,171,1,2024-03-13_00h34.19.847,Memory and Syntax,2023.2.3,MacIntel,62.5,,,,,,,,,,,,,,,,,,,,,,,,,,,,,,,,,,,,,,,,,,410.485,412.85,1.9,2.356,0,21,21,21,1,1,22,WO,4A,The bully pushed every student.
,,110563,171,1,2024-03-13_00h34.19.847,Memory and Syntax,2023.2.3,MacIntel,62.5,,,,,,,,,,,,,,,,,,,,,,,,,,,,,,,,,,,,,,,,,,412.85,415.321,5,2.468,0,22,22,22,1,1,23,WO,3A,Miguel baked delicious cupcakes.
,,110563,171,1,2024-03-13_00h34.19.847,Memory and Syntax,2023.2.3,MacIntel,62.5,,,,,,,,,,,,,,,,,,,,,,,,,,,,,,,,,,,,,,,,,,415.321,418.22,6.6,2.89,0,23,23,23,1,1,24,WO,1A,Abby answered the question.
,,110563,171,1,2024-03-13_00h34.19.847,Memory and Syntax,2023.2.3,MacIntel,62.5,,,,,,,,,,,,,,,,,,,,,,,,,,,,,,,,,,,,,,,,,,418.221,420.738,6.5,2.509,0,24,24,24,1,1,25,filler,3A,Brittany attempted to touch the porcupine.
,,110563,171,1,2024-03-13_00h34.19.847,Memory and Syntax,2023.2.3,MacIntel,62.5,,,,,,,,,,,,,,,,,,,,,,,,,,,,,,,,,,,,,,,,,,420.738,423.276,6.4,2.534,0,25,25,25,1,1,26,AS,3A,Gracie stayed by the window.
,,110563,171,1,2024-03-13_00h34.19.847,Memory and Syntax,2023.2.3,MacIntel,62.5,,,,,,,,,,,,,,,,,,,,,,,,,,,,,,,,,,,,,,,,,,423.277,425.874,2.1,2.59,0,26,26,26,1,1,27,WOV,11B,Wrote she her boyfriend a poem.
,,110563,171,1,2024-03-13_00h34.19.847,Memory and Syntax,2023.2.3,MacIntel,62.5,,,,,,,,,,,,,,,,,,,,,,,,,,,,,,,,,,,,,,,,,,425.875,428.412,1,2.534,0,27,27,27,1,1,28,WOV,12B,Watched Lily a movie.
,,110563,171,1,2024-03-13_00h34.19.847,Memory and Syntax,2023.2.3,MacIntel,62.5,,,,,,,,,,,,,,,,,,,,,,,,,,,,,,,,,,,,,,,,,,428.413,430.93,5.9,2.514,0,28,28,28,1,1,29,WO,2A,Jackie won the close race.
,,110563,171,1,2024-03-13_00h34.19.847,Memory and Syntax,2023.2.3,MacIntel,62.5,,,,,,,,,,,,,,,,,,,,,,,,,,,,,,,,,,,,,,,,,,430.93,434.015,5.9,3.082,0,29,29,29,1,1,30,AS,4A,Tomas drank from the water pitcher.
,,110563,171,1,2024-03-13_00h34.19.847,Memory and Syntax,2023.2.3,MacIntel,62.5,,,,,,,,,,,,,,,,,,,,,,,,,,,,,,,,,,,,,,,,,,434.015,436.434,1.6,2.416,0,30,30,30,1,1,31,WOV,10B,Kissed Kareem his boyfriend.
,,110563,171,1,2024-03-13_00h34.19.847,Memory and Syntax,2023.2.3,MacIntel,62.5,,,,,,,,,,,,,,,,,,,,,,,,,,,,,,,,,,,,,,,,,,436.434,439.015,5.1,2.572,0,31,31,31,1,1,32,ASV,10B,The children quieted themselves.
,,110563,171,1,2024-03-13_00h34.19.847,Memory and Syntax,2023.2.3,MacIntel,62.5,,,,,,,,,,,,,,,,,,,,,,,,,,,,,,,,,,,,,,,,,,439.015,441.67,5.5,2.652,0,32,32,32,1,1,33,AS,1A,They fidgeted in their chairs.
,,110563,171,1,2024-03-13_00h34.19.847,Memory and Syntax,2023.2.3,MacIntel,62.5,,,,,,,,,,,,,,,,,,,,,,,,,,,,,,,,,,,,,,,,,,441.671,444.238,5.8,2.565,0,33,33,33,1,1,34,filler,4A,It seems to him that Kim solved the problem.
,,110563,171,1,2024-03-13_00h34.19.847,Memory and Syntax,2023.2.3,MacIntel,62.5,,,,,,,,,,,,,,,,,,,,,,,,,,,,,,,,,,,,,,,,,,444.239,446.789,5.6,2.548,0,34,34,34,1,1,35,ASV,12B,The swimmers shaved themselves.