load.started,load.stopped,Sona ID,Participant ID,Session,date,expName,psychopyVersion,OS,frameRate,cvmtInstr.started,cvmtInstr.stopped,cvmtTaskInstr.started,cvmtTaskInstr.stopped,presentDesign.started,presentDesign.stopped,cvmt_key_resp.keys,cvmt_key_resp.corr,cvmt_key_resp.rt,cvmt_key_resp.duration,cvmtNoResp.started,cvmtNoResp.stopped,cvmt_key_resp2.keys,cvmt_key_resp2.corr,cvmtSampleFB.started,cvmtSampleFB.stopped,key_resp_15.keys,cvmtSampleFBFinal.started,cvmtSampleFBFinal.stopped,cvmt_final_samp_fb_key_resp.keys,cvmtTrials.thisRepN,cvmtTrials.thisTrialN,cvmtTrials.thisN,cvmtTrials.thisIndex,cvmtTrials.ran,cvmt_design,old_or_new,cvmt_key_resp2.rt,cvmt_key_resp2.duration,cvmtDelay.started,cvmtDelay.stopped,cvmt timer,engAJT_instr.started,engAJT_instr.stopped,start_ajt.keys,start_ajt.rt,start_ajt.duration,engAJT.started,engAJT.stopped,acceptability.response,acceptability.rt,engAJT_trials.thisRepN,engAJT_trials.thisTrialN,engAJT_trials.thisN,engAJT_trials.thisIndex,engAJT_trials.ran,ajt_list,list_position,condition,item,testSent
0.0004,0.6088,110723,198,1,2024-03-05_20h45.03.155,Memory and Syntax,2023.2.3,Linux x86_64,59.88023952,,,,,,,,,,,,,,,,,,,,,,,,,,,,,,,,,,,,,,,,,,,,,,,,,,,
,,110723,198,1,2024-03-05_20h45.03.155,Memory and Syntax,2023.2.3,Linux x86_64,59.88023952,0.6531,1.4772,1.4928,1.8265,1.9206,3.843,n,1,0.4663,,3.8442,3.8499,,0,3.8513,3.8568,,3.8589,3.8626,,0,0,0,0,1,cvmt/sample/s1.jpg,n,,,,,,,,,,,,,,,,,,,,,,,,
,,110723,198,1,2024-03-05_20h45.03.155,Memory and Syntax,2023.2.3,Linux x86_64,59.88023952,,,,,3.8665,5.8554,n,1,0.4835,,5.8562,5.8585,,0,5.8595,5.8624,,5.8634,5.8653,,0,1,1,1,1,cvmt/sample/s2.jpg,n,,,,,,,,,,,,,,,,,,,,,,,,
,,110723,198,1,2024-03-05_20h45.03.155,Memory and Syntax,2023.2.3,Linux x86_64,59.88023952,,,,,5.8684,7.8701,o,1,1.3526,,7.871,7.8732,,0,7.8741,7.8765,,7.8776,7.8799,,0,2,2,2,1,cvmt/sample/s3.jpg,o,,,,,,,,,,,,,,,,,,,,,,,,
,,110723,198,1,2024-03-05_20h45.03.155,Memory and Syntax,2023.2.3,Linux x86_64,59.88023952,,,,,7.883,9.8838,n,1,0.8031,,9.8848,9.8871,,0,9.8881,9.8908,,9.8917,9.8937,,0,3,3,3,1,cvmt/sample/s4.jpg,n,,,,,,,,,,,,,,,,,,,,,,,,
,,110723,198,1,2024-03-05_20h45.03.155,Memory and Syntax,2023.2.3,Linux x86_64,59.88023952,,,,,9.8969,11.8979,n,1,0.7253,,11.899,11.9014,,0,11.9022,11.9046,,11.9055,11.9074,,0,4,4,4,1,cvmt/sample/s5.jpg,n,,,,,,,,,,,,,,,,,,,,,,,,
,,110723,198,1,2024-03-05_20h45.03.155,Memory and Syntax,2023.2.3,Linux x86_64,59.88023952,,,,,11.9112,13.9126,n,1,0.3821,,13.9136,13.916,,0,13.9169,13.9193,,13.9201,13.9221,,0,5,5,5,1,cvmt/sample/s6.jpg,n,,,,,,,,,,,,,,,,,,,,,,,,
,,110723,198,1,2024-03-05_20h45.03.155,Memory and Syntax,2023.2.3,Linux x86_64,59.88023952,,,,,13.925,15.9299,o,1,0.6948,,15.9308,15.9337,,0,15.9346,15.9371,,15.938,15.94,,0,6,6,6,1,cvmt/sample/s7.jpg,o,,,,,,,,,,,,,,,,,,,,,,,,
,,110723,198,1,2024-03-05_20h45.03.155,Memory and Syntax,2023.2.3,Linux x86_64,59.88023952,,,,,15.9439,17.9406,n,1,0.6515,,17.9415,17.9437,,0,17.9446,17.9473,,17.9482,17.9502,,0,7,7,7,1,cvmt/sample/s8.jpg,n,,,,,,,,,,,,,,,,,,,,,,,,
,,110723,198,1,2024-03-05_20h45.03.155,Memory and Syntax,2023.2.3,Linux x86_64,59.88023952,,,,,17.9532,19.9544,n,1,0.6725,,19.9553,19.9574,,0,19.9583,19.9607,,19.9616,19.9637,,0,8,8,8,1,cvmt/sample/s9.jpg,n,,,,,,,,,,,,,,,,,,,,,,,,
,,110723,198,1,2024-03-05_20h45.03.155,Memory and Syntax,2023.2.3,Linux x86_64,59.88023952,,,,,19.9669,21.9688,n,1,0.727,,21.9698,21.9719,,0,21.9727,21.9752,,21.976,21.9779,,0,9,9,9,1,cvmt/sample/s10.jpg,n,,,,,,,,,,,,,,,,,,,,,,,,
,,110723,198,1,2024-03-05_20h45.03.155,Memory and Syntax,2023.2.3,Linux x86_64,59.88023952,,,,,21.9811,23.9831,o,1,0.5888,,23.9842,23.9869,,0,23.9878,23.9906,,23.9915,23.9946,,0,10,10,10,1,cvmt/sample/s11.jpg,o,,,,,,,,,,,,,,,,,,,,,,,,
,,110723,198,1,2024-03-05_20h45.03.155,Memory and Syntax,2023.2.3,Linux x86_64,59.88023952,,,23.9971,28.0278,28.0435,30.0414,n,1,0.6396,,30.0414,30.0417,,0,30.0418,30.0427,,30.0428,30.0429,,0,0,0,0,1,cvmt/test_items/t1.jpeg,n,,,,,,,,,,,,,,,,,,,,,,,,
,,110723,198,1,2024-03-05_20h45.03.155,Memory and Syntax,2023.2.3,Linux x86_64,59.88023952,,,,,30.0434,32.0392,n,1,0.8129,,32.0393,32.0395,,0,32.0395,32.048,,32.048,32.0481,,0,1,1,1,1,cvmt/test_items/t2.jpeg,n,,,,,,,,,,,,,,,,,,,,,,,,
,,110723,198,1,2024-03-05_20h45.03.155,Memory and Syntax,2023.2.3,Linux x86_64,59.88023952,,,,,32.0486,34.0364,n,0,0.5491,,34.0365,34.0367,,0,34.0367,34.0372,,34.0372,34.0373,,0,2,2,2,1,cvmt/test_items/t3.jpeg,o,,,,,,,,,,,,,,,,,,,,,,,,
,,110723,198,1,2024-03-05_20h45.03.155,Memory and Syntax,2023.2.3,Linux x86_64,59.88023952,,,,,34.0377,36.0341,n,0,0.5344,,36.0341,36.0343,,0,36.0343,36.0349,,36.0349,36.0349,,0,3,3,3,1,cvmt/test_items/t4.jpeg,o,,,,,,,,,,,,,,,,,,,,,,,,
,,110723,198,1,2024-03-05_20h45.03.155,Memory and Syntax,2023.2.3,Linux x86_64,59.88023952,,,,,36.0353,38.0319,n,0,0.4088,,38.032,38.0322,,0,38.0323,38.0328,,38.0328,38.0329,,0,4,4,4,1,cvmt/test_items/t5.jpeg,o,,,,,,,,,,,,,,,,,,,,,,,,
,,110723,198,1,2024-03-05_20h45.03.155,Memory and Syntax,2023.2.3,Linux x86_64,59.88023952,,,,,38.0332,40.0291,n,0,0.7152,,40.0292,40.0298,,0,40.0298,40.0305,,40.0305,40.0306,,0,5,5,5,1,cvmt/test_items/t6.jpeg,o,,,,,,,,,,,,,,,,,,,,,,,,
,,110723,198,1,2024-03-05_20h45.03.155,Memory and Syntax,2023.2.3,Linux x86_64,59.88023952,,,,,40.0309,42.027,n,0,0.4937,,42.0272,42.0275,,0,42.0275,42.0281,,42.0281,42.0282,,0,6,6,6,1,cvmt/test_items/t7.jpeg,o,,,,,,,,,,,,,,,,,,,,,,,,
,,110723,198,1,2024-03-05_20h45.03.155,Memory and Syntax,2023.2.3,Linux x86_64,59.88023952,,,,,42.0286,44.0256,o,1,0.7105,,44.0256,44.0259,,0,44.0259,44.0265,,44.0265,44.0266,,0,7,7,7,1,cvmt/test_items/t8.jpeg,o,,,,,,,,,,,,,,,,,,,,,,,,
,,110723,198,1,2024-03-05_20h45.03.155,Memory and Syntax,2023.2.3,Linux x86_64,59.88023952,,,,,44.0269,46.0225,n,0,1.0483,,46.0225,46.0227,,0,46.0229,46.0234,,46.0234,46.0235,,0,8,8,8,1,cvmt/test_items/t9.jpeg,o,,,,,,,,,,,,,,,,,,,,,,,,
,,110723,198,1,2024-03-05_20h45.03.155,Memory and Syntax,2023.2.3,Linux x86_64,59.88023952,,,,,46.0239,48.0199,n,0,0.6922,,48.0199,48.0202,,0,48.0203,48.0207,,48.0207,48.0208,,0,9,9,9,1,cvmt/test_items/t10.jpeg,o,,,,,,,,,,,,,,,,,,,,,,,,
,,110723,198,1,2024-03-05_20h45.03.155,Memory and Syntax,2023.2.3,Linux x86_64,59.88023952,,,,,48.0212,50.0171,n,1,1.3788,,50.0172,50.0174,,0,50.0175,50.018,,50.018,50.018,,0,10,10,10,1,cvmt/test_items/t11.jpeg,n,,,,,,,,,,,,,,,,,,,,,,,,
,,110723,198,1,2024-03-05_20h45.03.155,Memory and Syntax,2023.2.3,Linux x86_64,59.88023952,,,,,50.028,52.0315,n,0,0.5782,,52.0315,52.0318,,0,52.0318,52.0328,,52.0328,52.0329,,0,11,11,11,1,cvmt/test_items/t12.jpeg,o,,,,,,,,,,,,,,,,,,,,,,,,
,,110723,198,1,2024-03-05_20h45.03.155,Memory and Syntax,2023.2.3,Linux x86_64,59.88023952,,,,,52.0334,54.029,o,1,0.4553,,54.029,54.0292,,0,54.0293,54.0299,,54.0302,54.0303,,0,12,12,12,1,cvmt/test_items/t13.jpeg,o,,,,,,,,,,,,,,,,,,,,,,,,
,,110723,198,1,2024-03-05_20h45.03.155,Memory and Syntax,2023.2.3,Linux x86_64,59.88023952,,,,,54.0307,56.0269,o,1,0.8541,,56.027,56.0274,,0,56.0276,56.0282,,56.0282,56.0283,,0,13,13,13,1,cvmt/test_items/t14.jpeg,o,,,,,,,,,,,,,,,,,,,,,,,,
,,110723,198,1,2024-03-05_20h45.03.155,Memory and Syntax,2023.2.3,Linux x86_64,59.88023952,,,,,56.0289,58.0243,o,1,0.5267,,58.0243,58.0246,,0,58.0246,58.0251,,58.0252,58.0252,,0,14,14,14,1,cvmt/test_items/t15.jpeg,o,,,,,,,,,,,,,,,,,,,,,,,,
,,110723,198,1,2024-03-05_20h45.03.155,Memory and Syntax,2023.2.3,Linux x86_64,59.88023952,,,,,58.0255,60.0216,o,1,0.6836,,60.0217,60.0219,,0,60.0219,60.0224,,60.0225,60.0226,,0,15,15,15,1,cvmt/test_items/t16.jpeg,o,,,,,,,,,,,,,,,,,,,,,,,,
,,110723,198,1,2024-03-05_20h45.03.155,Memory and Syntax,2023.2.3,Linux x86_64,59.88023952,,,,,60.023,62.0196,n,0,0.8392,,62.0196,62.0204,,0,62.0204,62.021,,62.021,62.0211,,0,16,16,16,1,cvmt/test_items/t17.jpeg,o,,,,,,,,,,,,,,,,,,,,,,,,
,,110723,198,1,2024-03-05_20h45.03.155,Memory and Syntax,2023.2.3,Linux x86_64,59.88023952,,,,,62.0214,64.0168,o,1,0.5858,,64.0168,64.017,,0,64.0171,64.0177,,64.0178,64.0179,,0,17,17,17,1,cvmt/test_items/t18.jpeg,o,,,,,,,,,,,,,,,,,,,,,,,,
,,110723,198,1,2024-03-05_20h45.03.155,Memory and Syntax,2023.2.3,Linux x86_64,59.88023952,,,,,64.0182,66.0144,n,1,0.6084,,66.0144,66.0148,,0,66.0148,66.0152,,66.0153,66.0154,,0,18,18,18,1,cvmt/test_items/t19.jpeg,n,,,,,,,,,,,,,,,,,,,,,,,,
,,110723,198,1,2024-03-05_20h45.03.155,Memory and Syntax,2023.2.3,Linux x86_64,59.88023952,,,,,66.0157,68.0122,o,1,0.4827,,68.0122,68.0125,,0,68.0125,68.0131,,68.0131,68.0131,,0,19,19,19,1,cvmt/test_items/t20.jpeg,o,,,,,,,,,,,,,,,,,,,,,,,,
,,110723,198,1,2024-03-05_20h45.03.155,Memory and Syntax,2023.2.3,Linux x86_64,59.88023952,,,,,68.0135,70.0099,n,0,0.7038,,70.01,70.0102,,0,70.0104,70.0109,,70.011,70.0111,,0,20,20,20,1,cvmt/test_items/t21.jpeg,o,,,,,,,,,,,,,,,,,,,,,,,,
,,110723,198,1,2024-03-05_20h45.03.155,Memory and Syntax,2023.2.3,Linux x86_64,59.88023952,,,,,70.0115,72.0072,n,0,0.6114,,72.0073,72.0076,,0,72.0076,72.008,,72.008,72.0081,,0,21,21,21,1,cvmt/test_items/t22.jpeg,o,,,,,,,,,,,,,,,,,,,,,,,,
,,110723,198,1,2024-03-05_20h45.03.155,Memory and Syntax,2023.2.3,Linux x86_64,59.88023952,,,,,72.0085,74.0048,,0,,,74.0049,75.0536,o,0,75.0538,75.0547,,75.0547,75.0548,,0,22,22,22,1,cvmt/test_items/t23.jpeg,n,1.0313,,,,,,,,,,,,,,,,,,,,,,,
,,110723,198,1,2024-03-05_20h45.03.155,Memory and Syntax,2023.2.3,Linux x86_64,59.88023952,,,,,75.0552,77.0509,n,1,0.9165,,77.051,77.0512,,0,77.0512,77.0517,,77.052,77.052,,0,23,23,23,1,cvmt/test_items/t24.jpeg,n,,,,,,,,,,,,,,,,,,,,,,,,
,,110723,198,1,2024-03-05_20h45.03.155,Memory and Syntax,2023.2.3,Linux x86_64,59.88023952,,,,,77.0525,79.049,o,1,0.6924,,79.049,79.0494,,0,79.0494,79.0499,,79.0499,79.05,,0,24,24,24,1,cvmt/test_items/t25.jpeg,o,,,,,,,,,,,,,,,,,,,,,,,,
,,110723,198,1,2024-03-05_20h45.03.155,Memory and Syntax,2023.2.3,Linux x86_64,59.88023952,,,,,79.0505,81.0464,n,1,1.3352,,81.0465,81.0467,,0,81.0468,81.0473,,81.0473,81.0473,,0,25,25,25,1,cvmt/test_items/t26.jpeg,n,,,,,,,,,,,,,,,,,,,,,,,,
,,110723,198,1,2024-03-05_20h45.03.155,Memory and Syntax,2023.2.3,Linux x86_64,59.88023952,,,,,81.0477,83.0442,o,1,0.7982,,83.0443,83.0445,,0,83.0445,83.045,,83.0451,83.0451,,0,26,26,26,1,cvmt/test_items/t27.jpeg,o,,,,,,,,,,,,,,,,,,,,,,,,
,,110723,198,1,2024-03-05_20h45.03.155,Memory and Syntax,2023.2.3,Linux x86_64,59.88023952,,,,,83.0455,85.0418,o,0,0.6623,,85.0419,85.0421,,0,85.0422,85.0426,,85.0427,85.0428,,0,27,27,27,1,cvmt/test_items/t28.jpeg,n,,,,,,,,,,,,,,,,,,,,,,,,
,,110723,198,1,2024-03-05_20h45.03.155,Memory and Syntax,2023.2.3,Linux x86_64,59.88023952,,,,,85.0431,87.0393,n,1,0.6512,,87.0393,87.0397,,0,87.0397,87.0402,,87.0403,87.0404,,0,28,28,28,1,cvmt/test_items/t29.jpeg,n,,,,,,,,,,,,,,,,,,,,,,,,
,,110723,198,1,2024-03-05_20h45.03.155,Memory and Syntax,2023.2.3,Linux x86_64,59.88023952,,,,,87.0407,89.0368,n,0,0.4124,,89.0369,89.0377,,0,89.0378,89.0384,,89.0385,89.0387,,0,29,29,29,1,cvmt/test_items/t30.jpeg,o,,,,,,,,,,,,,,,,,,,,,,,,
,,110723,198,1,2024-03-05_20h45.03.155,Memory and Syntax,2023.2.3,Linux x86_64,59.88023952,,,,,89.039,91.0342,o,1,0.9237,,91.0342,91.0345,,0,91.0345,91.0351,,91.0352,91.0354,,0,30,30,30,1,cvmt/test_items/t31.jpeg,o,,,,,,,,,,,,,,,,,,,,,,,,
,,110723,198,1,2024-03-05_20h45.03.155,Memory and Syntax,2023.2.3,Linux x86_64,59.88023952,,,,,91.0359,93.0321,o,0,0.5197,,93.0321,93.0325,,0,93.0326,93.0332,,93.0333,93.0334,,0,31,31,31,1,cvmt/test_items/t32.jpeg,n,,,,,,,,,,,,,,,,,,,,,,,,
,,110723,198,1,2024-03-05_20h45.03.155,Memory and Syntax,2023.2.3,Linux x86_64,59.88023952,,,,,93.0337,95.0294,o,0,0.6696,,95.0295,95.0297,,0,95.0298,95.0303,,95.0303,95.0304,,0,32,32,32,1,cvmt/test_items/t33.jpeg,n,,,,,,,,,,,,,,,,,,,,,,,,
,,110723,198,1,2024-03-05_20h45.03.155,Memory and Syntax,2023.2.3,Linux x86_64,59.88023952,,,,,95.0308,97.0269,o,1,0.8216,,97.027,97.0273,,0,97.0274,97.0279,,97.0279,97.028,,0,33,33,33,1,cvmt/test_items/t34.jpeg,o,,,,,,,,,,,,,,,,,,,,,,,,
,,110723,198,1,2024-03-05_20h45.03.155,Memory and Syntax,2023.2.3,Linux x86_64,59.88023952,,,,,97.0283,99.0245,n,1,0.8535,,99.0246,99.0249,,0,99.0249,99.0257,,99.0258,99.0259,,0,34,34,34,1,cvmt/test_items/t35.jpeg,n,,,,,,,,,,,,,,,,,,,,,,,,
,,110723,198,1,2024-03-05_20h45.03.155,Memory and Syntax,2023.2.3,Linux x86_64,59.88023952,,,,,99.0263,101.023,o,1,0.6199,,101.023,101.0235,,0,101.0235,101.0242,,101.0242,101.0243,,0,35,35,35,1,cvmt/test_items/t36.jpeg,o,,,,,,,,,,,,,,,,,,,,,,,,
,,110723,198,1,2024-03-05_20h45.03.155,Memory and Syntax,2023.2.3,Linux x86_64,59.88023952,,,,,101.0246,103.0196,n,1,0.3445,,103.0197,103.02,,0,103.0201,103.0206,,103.0207,103.0207,,0,36,36,36,1,cvmt/test_items/t37.jpeg,n,,,,,,,,,,,,,,,,,,,,,,,,
,,110723,198,1,2024-03-05_20h45.03.155,Memory and Syntax,2023.2.3,Linux x86_64,59.88023952,,,,,103.0212,105.0172,n,0,0.3119,,105.0172,105.0176,,0,105.0177,105.0183,,105.0184,105.0186,,0,37,37,37,1,cvmt/test_items/t38.jpeg,o,,,,,,,,,,,,,,,,,,,,,,,,
,,110723,198,1,2024-03-05_20h45.03.155,Memory and Syntax,2023.2.3,Linux x86_64,59.88023952,,,,,105.019,107.0147,n,1,0.5488,,107.0148,107.015,,0,107.015,107.0156,,107.0156,107.0157,,0,38,38,38,1,cvmt/test_items/t39.jpeg,n,,,,,,,,,,,,,,,,,,,,,,,,
,,110723,198,1,2024-03-05_20h45.03.155,Memory and Syntax,2023.2.3,Linux x86_64,59.88023952,,,,,107.016,109.0125,o,1,0.6537,,109.0125,109.0129,,0,109.0129,109.0137,,109.0139,109.0139,,0,39,39,39,1,cvmt/test_items/t40.jpeg,o,,,,,,,,,,,,,,,,,,,,,,,,
,,110723,198,1,2024-03-05_20h45.03.155,Memory and Syntax,2023.2.3,Linux x86_64,59.88023952,,,,,109.0147,111.01,n,1,0.642,,111.01,111.0103,,0,111.0104,111.0109,,111.0109,111.0109,,0,40,40,40,1,cvmt/test_items/t41.jpeg,n,,,,,,,,,,,,,,,,,,,,,,,,
,,110723,198,1,2024-03-05_20h45.03.155,Memory and Syntax,2023.2.3,Linux x86_64,59.88023952,,,,,111.0113,113.0078,o,1,0.5025,,113.0079,113.0082,,0,113.0082,113.0087,,113.0088,113.0088,,0,41,41,41,1,cvmt/test_items/t42.jpeg,o,,,,,,,,,,,,,,,,,,,,,,,,
,,110723,198,1,2024-03-05_20h45.03.155,Memory and Syntax,2023.2.3,Linux x86_64,59.88023952,,,,,113.0092,115.0051,o,1,0.4672,,115.0052,115.0054,,0,115.0055,115.0061,,115.0062,115.0063,,0,42,42,42,1,cvmt/test_items/t43.jpeg,o,,,,,,,,,,,,,,,,,,,,,,,,
,,110723,198,1,2024-03-05_20h45.03.155,Memory and Syntax,2023.2.3,Linux x86_64,59.88023952,,,,,115.0067,117.0027,n,1,0.7589,,117.0027,117.003,,0,117.0031,117.0036,,117.0036,117.0041,,0,43,43,43,1,cvmt/test_items/t44.jpeg,n,,,,,,,,,,,,,,,,,,,,,,,,
,,110723,198,1,2024-03-05_20h45.03.155,Memory and Syntax,2023.2.3,Linux x86_64,59.88023952,,,,,117.0045,119.0001,n,0,0.8235,,119.0002,119.0004,,0,119.0005,119.001,,119.001,119.0011,,0,44,44,44,1,cvmt/test_items/t45.jpeg,o,,,,,,,,,,,,,,,,,,,,,,,,
,,110723,198,1,2024-03-05_20h45.03.155,Memory and Syntax,2023.2.3,Linux x86_64,59.88023952,,,,,119.0014,120.9978,o,1,0.6032,,120.9978,120.9981,,0,120.9982,120.9987,,120.9987,120.9988,,0,45,45,45,1,cvmt/test_items/t46.jpeg,o,,,,,,,,,,,,,,,,,,,,,,,,
,,110723,198,1,2024-03-05_20h45.03.155,Memory and Syntax,2023.2.3,Linux x86_64,59.88023952,,,,,120.9993,122.9954,o,1,0.7238,,122.9954,122.9956,,0,122.9957,122.9962,,122.9963,122.9965,,0,46,46,46,1,cvmt/test_items/t47.jpeg,o,,,,,,,,,,,,,,,,,,,,,,,,
,,110723,198,1,2024-03-05_20h45.03.155,Memory and Syntax,2023.2.3,Linux x86_64,59.88023952,,,,,122.9969,124.9928,n,1,1.0355,,124.9929,124.993,,0,124.9931,124.9936,,124.9936,124.9938,,0,47,47,47,1,cvmt/test_items/t48.jpeg,n,,,,,,,,,,,,,,,,,,,,,,,,
,,110723,198,1,2024-03-05_20h45.03.155,Memory and Syntax,2023.2.3,Linux x86_64,59.88023952,,,,,124.9943,126.9907,o,1,0.7751,,126.9908,126.991,,0,126.9911,126.9917,,126.9917,126.9918,,0,48,48,48,1,cvmt/test_items/t49.jpeg,o,,,,,,,,,,,,,,,,,,,,,,,,
,,110723,198,1,2024-03-05_20h45.03.155,Memory and Syntax,2023.2.3,Linux x86_64,59.88023952,,,,,126.9921,128.9882,o,1,0.7246,,128.9883,128.9885,,0,128.9885,128.9893,,128.9893,128.9895,,0,49,49,49,1,cvmt/test_items/t50.jpeg,o,,,,,,,,,,,,,,,,,,,,,,,,
,,110723,198,1,2024-03-05_20h45.03.155,Memory and Syntax,2023.2.3,Linux x86_64,59.88023952,,,,,128.99,130.9855,o,0,0.6374,,130.9855,130.9857,,0,130.9857,130.9862,,130.9863,130.9864,,0,50,50,50,1,cvmt/test_items/t51.jpeg,n,,,,,,,,,,,,,,,,,,,,,,,,
,,110723,198,1,2024-03-05_20h45.03.155,Memory and Syntax,2023.2.3,Linux x86_64,59.88023952,,,,,130.9867,132.9832,o,1,0.6918,,132.9832,132.9835,,0,132.9836,132.984,,132.984,132.9841,,0,51,51,51,1,cvmt/test_items/t52.jpeg,o,,,,,,,,,,,,,,,,,,,,,,,,
,,110723,198,1,2024-03-05_20h45.03.155,Memory and Syntax,2023.2.3,Linux x86_64,59.88023952,,,,,132.9845,134.9806,o,1,0.7091,,134.9807,134.9809,,0,134.981,134.9817,,134.9818,134.982,,0,52,52,52,1,cvmt/test_items/t53.jpeg,o,,,,,,,,,,,,,,,,,,,,,,,,
,,110723,198,1,2024-03-05_20h45.03.155,Memory and Syntax,2023.2.3,Linux x86_64,59.88023952,,,,,134.9824,136.9786,n,0,0.8124,,136.9788,136.9794,,0,136.9794,136.9801,,136.9801,136.9802,,0,53,53,53,1,cvmt/test_items/t54.jpeg,o,,,,,,,,,,,,,,,,,,,,,,,,
,,110723,198,1,2024-03-05_20h45.03.155,Memory and Syntax,2023.2.3,Linux x86_64,59.88023952,,,,,136.9806,138.9763,o,1,0.7836,,138.9763,138.9768,,0,138.9769,138.9774,,138.9774,138.9775,,0,54,54,54,1,cvmt/test_items/t55.jpeg,o,,,,,,,,,,,,,,,,,,,,,,,,
,,110723,198,1,2024-03-05_20h45.03.155,Memory and Syntax,2023.2.3,Linux x86_64,59.88023952,,,,,138.978,140.9735,n,0,0.9912,,140.9736,140.9739,,0,140.9739,140.9746,,140.9746,140.9747,,0,55,55,55,1,cvmt/test_items/t56.jpeg,o,,,,,,,,,,,,,,,,,,,,,,,,
,,110723,198,1,2024-03-05_20h45.03.155,Memory and Syntax,2023.2.3,Linux x86_64,59.88023952,,,,,140.9751,142.9714,o,1,0.7704,,142.9715,142.9717,,0,142.9717,142.9723,,142.9723,142.9725,,0,56,56,56,1,cvmt/test_items/t57.jpeg,o,,,,,,,,,,,,,,,,,,,,,,,,
,,110723,198,1,2024-03-05_20h45.03.155,Memory and Syntax,2023.2.3,Linux x86_64,59.88023952,,,,,142.973,144.9689,n,1,0.7565,,144.9689,144.9692,,0,144.9693,144.9698,,144.9698,144.9699,,0,57,57,57,1,cvmt/test_items/t58.jpeg,n,,,,,,,,,,,,,,,,,,,,,,,,
,,110723,198,1,2024-03-05_20h45.03.155,Memory and Syntax,2023.2.3,Linux x86_64,59.88023952,,,,,144.9702,146.9662,o,0,0.9559,,146.9663,146.9665,,0,146.9666,146.9672,,146.9672,146.9673,,0,58,58,58,1,cvmt/test_items/t59.jpeg,n,,,,,,,,,,,,,,,,,,,,,,,,
,,110723,198,1,2024-03-05_20h45.03.155,Memory and Syntax,2023.2.3,Linux x86_64,59.88023952,,,,,146.9677,148.9638,n,0,0.5292,,148.9638,148.9641,,0,148.9642,148.9647,,148.9648,148.9648,,0,59,59,59,1,cvmt/test_items/t60.jpeg,o,,,,,,,,,,,,,,,,,,,,,,,,
,,110723,198,1,2024-03-05_20h45.03.155,Memory and Syntax,2023.2.3,Linux x86_64,59.88023952,,,,,148.9651,150.9616,n,0,1.2375,,150.9617,150.962,,0,150.9621,150.9628,,150.9628,150.9629,,0,60,60,60,1,cvmt/test_items/t61.jpeg,o,,,,,,,,,,,,,,,,,,,,,,,,
,,110723,198,1,2024-03-05_20h45.03.155,Memory and Syntax,2023.2.3,Linux x86_64,59.88023952,,,,,150.9632,152.959,o,1,0.6558,,152.9591,152.9593,,0,152.9594,152.9599,,152.96,152.9601,,0,61,61,61,1,cvmt/test_items/t62.jpeg,o,,,,,,,,,,,,,,,,,,,,,,,,
,,110723,198,1,2024-03-05_20h45.03.155,Memory and Syntax,2023.2.3,Linux x86_64,59.88023952,,,,,152.9605,154.9565,n,0,0.7715,,154.9566,154.9568,,0,154.9569,154.9574,,154.9574,154.9576,,0,62,62,62,1,cvmt/test_items/t63.jpeg,o,,,,,,,,,,,,,,,,,,,,,,,,
,,110723,198,1,2024-03-05_20h45.03.155,Memory and Syntax,2023.2.3,Linux x86_64,59.88023952,,,,,154.9578,156.9549,o,1,0.4893,,156.9551,156.9553,,0,156.9554,156.9559,,156.956,156.956,,0,63,63,63,1,cvmt/test_items/t64.jpeg,o,,,,,,,,,,,,,,,,,,,,,,,,
,,110723,198,1,2024-03-05_20h45.03.155,Memory and Syntax,2023.2.3,Linux x86_64,59.88023952,,,,,156.9564,158.9519,n,0,0.7055,,158.9519,158.9522,,0,158.9523,158.9528,,158.9528,158.9529,,0,64,64,64,1,cvmt/test_items/t65.jpeg,o,,,,,,,,,,,,,,,,,,,,,,,,
,,110723,198,1,2024-03-05_20h45.03.155,Memory and Syntax,2023.2.3,Linux x86_64,59.88023952,,,,,158.9532,160.9496,o,1,0.5601,,160.9496,160.9499,,0,160.9499,160.9503,,160.9504,160.9505,,0,65,65,65,1,cvmt/test_items/t66.jpeg,o,,,,,,,,,,,,,,,,,,,,,,,,
,,110723,198,1,2024-03-05_20h45.03.155,Memory and Syntax,2023.2.3,Linux x86_64,59.88023952,,,,,160.9508,162.9469,n,1,0.5577,,162.947,162.9472,,0,162.9472,162.9481,,162.9481,162.9481,,0,66,66,66,1,cvmt/test_items/t67.jpeg,n,,,,,,,,,,,,,,,,,,,,,,,,
,,110723,198,1,2024-03-05_20h45.03.155,Memory and Syntax,2023.2.3,Linux x86_64,59.88023952,,,,,162.9485,164.9445,n,0,0.5989,,164.9446,164.9448,,0,164.9448,164.9453,,164.9453,164.9454,,0,67,67,67,1,cvmt/test_items/t68.jpeg,o,,,,,,,,,,,,,,,,,,,,,,,,
,,110723,198,1,2024-03-05_20h45.03.155,Memory and Syntax,2023.2.3,Linux x86_64,59.88023952,,,,,164.9458,166.9421,o,1,0.9047,,166.9422,166.9424,,0,166.9424,166.9429,,166.943,166.9431,,0,68,68,68,1,cvmt/test_items/t69.jpeg,o,,,,,,,,,,,,,,,,,,,,,,,,
,,110723,198,1,2024-03-05_20h45.03.155,Memory and Syntax,2023.2.3,Linux x86_64,59.88023952,,,,,166.9434,168.9396,o,1,0.6757,,168.9396,168.9399,,0,168.9399,168.9405,,168.9406,168.9406,,0,69,69,69,1,cvmt/test_items/t70.jpeg,o,,,,,,,,,,,,,,,,,,,,,,,,
,,110723,198,1,2024-03-05_20h45.03.155,Memory and Syntax,2023.2.3,Linux x86_64,59.88023952,,,,,168.9411,170.9371,o,0,0.6102,,170.9372,170.9375,,0,170.9375,170.9381,,170.9381,170.9382,,0,70,70,70,1,cvmt/test_items/t71.jpeg,n,,,,,,,,,,,,,,,,,,,,,,,,
,,110723,198,1,2024-03-05_20h45.03.155,Memory and Syntax,2023.2.3,Linux x86_64,59.88023952,,,,,170.9386,172.9349,o,1,0.5036,,172.935,172.9352,,0,172.9353,172.9359,,172.9359,172.9359,,0,71,71,71,1,cvmt/test_items/t72.jpeg,o,,,,,,,,,,,,,,,,,,,,,,,,
,,110723,198,1,2024-03-05_20h45.03.155,Memory and Syntax,2023.2.3,Linux x86_64,59.88023952,,,,,172.9364,174.9328,o,1,0.5408,,174.9329,174.9332,,0,174.9333,174.9345,,174.9346,174.9347,,0,72,72,72,1,cvmt/test_items/t73.jpeg,o,,,,,,,,,,,,,,,,,,,,,,,,
,,110723,198,1,2024-03-05_20h45.03.155,Memory and Syntax,2023.2.3,Linux x86_64,59.88023952,,,,,174.9351,176.93,n,0,0.9422,,176.9301,176.9304,,0,176.9305,176.9309,,176.931,176.9311,,0,73,73,73,1,cvmt/test_items/t74.jpeg,o,,,,,,,,,,,,,,,,,,,,,,,,
,,110723,198,1,2024-03-05_20h45.03.155,Memory and Syntax,2023.2.3,Linux x86_64,59.88023952,,,,,176.9315,178.9279,o,1,0.5879,,178.928,178.9282,,0,178.9283,178.9289,,178.9289,178.929,,0,74,74,74,1,cvmt/test_items/t75.jpeg,o,,,,,,,,,,,,,,,,,,,,,,,,
,,110723,198,1,2024-03-05_20h45.03.155,Memory and Syntax,2023.2.3,Linux x86_64,59.88023952,,,,,178.9293,180.9251,o,1,0.6023,,180.9252,180.9255,,0,180.9255,180.9259,,180.9262,180.9263,,0,75,75,75,1,cvmt/test_items/t76.jpeg,o,,,,,,,,,,,,,,,,,,,,,,,,
,,110723,198,1,2024-03-05_20h45.03.155,Memory and Syntax,2023.2.3,Linux x86_64,59.88023952,,,,,180.9267,182.9225,o,1,0.7191,,182.9226,182.9228,,0,182.9229,182.9234,,182.9235,182.9235,,0,76,76,76,1,cvmt/test_items/t77.jpeg,o,,,,,,,,,,,,,,,,,,,,,,,,
,,110723,198,1,2024-03-05_20h45.03.155,Memory and Syntax,2023.2.3,Linux x86_64,59.88023952,,,,,182.9239,184.9204,n,0,0.9238,,184.9205,184.9207,,0,184.9209,184.9215,,184.9216,184.9217,,0,77,77,77,1,cvmt/test_items/t78.jpeg,o,,,,,,,,,,,,,,,,,,,,,,,,
,,110723,198,1,2024-03-05_20h45.03.155,Memory and Syntax,2023.2.3,Linux x86_64,59.88023952,,,,,184.9222,186.9179,o,1,0.0966,,186.918,186.9182,,0,186.9183,186.9188,,186.9189,186.919,,0,78,78,78,1,cvmt/test_items/t79.jpeg,o,,,,,,,,,,,,,,,,,,,,,,,,
,,110723,198,1,2024-03-05_20h45.03.155,Memory and Syntax,2023.2.3,Linux x86_64,59.88023952,,,,,186.9193,188.9154,o,0,0.7023,,188.9154,188.9157,,0,188.9158,188.9163,,188.9163,188.9164,,0,79,79,79,1,cvmt/test_items/t80.jpeg,n,,,,,,,,,,,,,,,,,,,,,,,,
,,110723,198,1,2024-03-05_20h45.03.155,Memory and Syntax,2023.2.3,Linux x86_64,59.88023952,,,,,188.9168,190.9132,o,1,0.4913,,190.9133,190.9137,,0,190.9137,190.9142,,190.9143,190.9143,,0,80,80,80,1,cvmt/test_items/t81.jpeg,o,,,,,,,,,,,,,,,,,,,,,,,,
,,110723,198,1,2024-03-05_20h45.03.155,Memory and Syntax,2023.2.3,Linux x86_64,59.88023952,,,,,190.9147,192.9107,n,0,0.5265,,192.9108,192.9109,,0,192.9109,192.9114,,192.9115,192.9116,,0,81,81,81,1,cvmt/test_items/t82.jpeg,o,,,,,,,,,,,,,,,,,,,,,,,,
,,110723,198,1,2024-03-05_20h45.03.155,Memory and Syntax,2023.2.3,Linux x86_64,59.88023952,,,,,192.9119,194.9084,o,1,0.6614,,194.9084,194.9088,,0,194.9088,194.9094,,194.9095,194.9096,,0,82,82,82,1,cvmt/test_items/t83.jpeg,o,,,,,,,,,,,,,,,,,,,,,,,,
,,110723,198,1,2024-03-05_20h45.03.155,Memory and Syntax,2023.2.3,Linux x86_64,59.88023952,,,,,194.9099,196.9057,o,1,0.813,,196.9057,196.9061,,0,196.9061,196.9067,,196.9067,196.9068,,0,83,83,83,1,cvmt/test_items/t84.jpeg,o,,,,,,,,,,,,,,,,,,,,,,,,
,,110723,198,1,2024-03-05_20h45.03.155,Memory and Syntax,2023.2.3,Linux x86_64,59.88023952,,,,,196.9073,198.9034,n,0,0.7952,,198.9035,198.9037,,0,198.9038,198.9043,,198.9044,198.9044,,0,84,84,84,1,cvmt/test_items/t85.jpeg,o,,,,,,,,,,,,,,,,,,,,,,,,
,,110723,198,1,2024-03-05_20h45.03.155,Memory and Syntax,2023.2.3,Linux x86_64,59.88023952,,,,,198.9048,200.901,o,1,0.4613,,200.9013,200.9015,,0,200.9016,200.9024,,200.9025,200.9026,,0,85,85,85,1,cvmt/test_items/t86.jpeg,o,,,,,,,,,,,,,,,,,,,,,,,,
,,110723,198,1,2024-03-05_20h45.03.155,Memory and Syntax,2023.2.3,Linux x86_64,59.88023952,,,,,200.903,202.8984,n,0,0.8252,,202.8985,202.8995,,0,202.8997,202.901,,202.9011,202.9012,,0,86,86,86,1,cvmt/test_items/t87.jpeg,o,,,,,,,,,,,,,,,,,,,,,,,,
,,110723,198,1,2024-03-05_20h45.03.155,Memory and Syntax,2023.2.3,Linux x86_64,59.88023952,,,,,202.9016,204.8962,n,1,0.7719,,204.8964,204.8966,,0,204.8967,204.8972,,204.8973,204.8974,,0,87,87,87,1,cvmt/test_items/t88.jpeg,n,,,,,,,,,,,,,,,,,,,,,,,,
,,110723,198,1,2024-03-05_20h45.03.155,Memory and Syntax,2023.2.3,Linux x86_64,59.88023952,,,,,204.8977,206.8937,n,1,0.5212,,206.8937,206.8939,,0,206.894,206.8947,,206.8948,206.8948,,0,88,88,88,1,cvmt/test_items/t89.jpeg,n,,,,,,,,,,,,,,,,,,,,,,,,
,,110723,198,1,2024-03-05_20h45.03.155,Memory and Syntax,2023.2.3,Linux x86_64,59.88023952,,,,,206.8953,208.8919,o,1,0.5914,,208.892,208.8926,,0,208.8927,208.8932,,208.8932,208.8934,,0,89,89,89,1,cvmt/test_items/t90.jpeg,o,,,,,,,,,,,,,,,,,,,,,,,,
,,110723,198,1,2024-03-05_20h45.03.155,Memory and Syntax,2023.2.3,Linux x86_64,59.88023952,,,,,208.8938,210.8889,o,1,0.7922,,210.889,210.8898,,0,210.8898,210.8904,,210.8904,210.8904,,0,90,90,90,1,cvmt/test_items/t91.jpeg,o,,,,,,,,,,,,,,,,,,,,,,,,
,,110723,198,1,2024-03-05_20h45.03.155,Memory and Syntax,2023.2.3,Linux x86_64,59.88023952,,,,,210.8909,212.8861,o,1,0.6619,,212.8863,212.8865,,0,212.8865,212.8871,,212.8871,212.8872,,0,91,91,91,1,cvmt/test_items/t92.jpeg,o,,,,,,,,,,,,,,,,,,,,,,,,
,,110723,198,1,2024-03-05_20h45.03.155,Memory and Syntax,2023.2.3,Linux x86_64,59.88023952,,,,,212.8878,214.8843,o,1,0.7158,,214.8844,214.8847,,0,214.8847,214.8853,,214.8853,214.8854,,0,92,92,92,1,cvmt/test_items/t93.jpeg,o,,,,,,,,,,,,,,,,,,,,,,,,
,,110723,198,1,2024-03-05_20h45.03.155,Memory and Syntax,2023.2.3,Linux x86_64,59.88023952,,,,,214.8857,216.8817,,0,,,216.8817,216.9148,o,1,216.9148,216.9155,,216.9155,216.9157,,0,93,93,93,1,cvmt/test_items/t94.jpeg,o,0.0173,,,,,,,,,,,,,,,,,,,,,,,
,,110723,198,1,2024-03-05_20h45.03.155,Memory and Syntax,2023.2.3,Linux x86_64,59.88023952,,,,,216.9161,218.9127,o,1,0.9073,,218.9127,218.9131,,0,218.9131,218.9137,,218.9138,218.9139,,0,94,94,94,1,cvmt/test_items/t95.jpeg,o,,,,,,,,,,,,,,,,,,,,,,,,
,,110723,198,1,2024-03-05_20h45.03.155,Memory and Syntax,2023.2.3,Linux x86_64,59.88023952,,,,,218.9142,220.9099,o,1,0.523,,220.9099,220.9102,,0,220.9102,220.9108,,220.9108,220.9109,,0,95,95,95,1,cvmt/test_items/t96.jpeg,o,,,,,,,,,,,,,,,,,,,,,,,,
,,110723,198,1,2024-03-05_20h45.03.155,Memory and Syntax,2023.2.3,Linux x86_64,59.88023952,,,,,220.9113,222.9076,o,1,0.7522,,222.9076,222.9079,,0,222.9079,222.9084,,222.9085,222.9085,,0,96,96,96,1,cvmt/test_items/t97.jpeg,o,,,,,,,,,,,,,,,,,,,,,,,,
,,110723,198,1,2024-03-05_20h45.03.155,Memory and Syntax,2023.2.3,Linux x86_64,59.88023952,,,,,222.9089,224.9055,o,0,0.1572,,224.9055,224.9058,,0,224.9058,224.9063,,224.9063,224.9064,,0,97,97,97,1,cvmt/test_items/t98.jpeg,n,,,,,,,,,,,,,,,,,,,,,,,,
,,110723,198,1,2024-03-05_20h45.03.155,Memory and Syntax,2023.2.3,Linux x86_64,59.88023952,,,,,224.9068,226.9029,o,1,0.5086,,226.9029,226.9031,,0,226.9032,226.9037,,226.9038,226.9038,,0,98,98,98,1,cvmt/test_items/t99.jpeg,o,,,,,,,,,,,,,,,,,,,,,,,,
,,110723,198,1,2024-03-05_20h45.03.155,Memory and Syntax,2023.2.3,Linux x86_64,59.88023952,,,,,226.9042,228.9006,o,1,0.671,,228.9006,228.9015,,0,228.9016,228.9021,,228.9035,228.9037,,0,99,99,99,1,cvmt/test_items/t100.jpeg,o,,,,,,,,,,,,,,,,,,,,,,,,
,,110723,198,1,2024-03-05_20h45.03.155,Memory and Syntax,2023.2.3,Linux x86_64,59.88023952,,,,,228.9041,230.8977,o,1,0.7892,,230.8977,230.898,,0,230.898,230.8988,,230.8988,230.8988,,0,100,100,100,1,cvmt/test_items/t101.jpeg,o,,,,,,,,,,,,,,,,,,,,,,,,
,,110723,198,1,2024-03-05_20h45.03.155,Memory and Syntax,2023.2.3,Linux x86_64,59.88023952,,,,,230.8992,232.8956,o,1,0.6545,,232.8957,232.8959,,0,232.896,232.8966,,232.8966,232.8967,,0,101,101,101,1,cvmt/test_items/t102.jpeg,o,,,,,,,,,,,,,,,,,,,,,,,,
,,110723,198,1,2024-03-05_20h45.03.155,Memory and Syntax,2023.2.3,Linux x86_64,59.88023952,,,,,232.8971,234.8935,n,0,1.0191,,234.8935,234.8951,,0,234.8952,234.8957,,234.8957,234.8959,,0,102,102,102,1,cvmt/test_items/t103.jpeg,o,,,,,,,,,,,,,,,,,,,,,,,,
,,110723,198,1,2024-03-05_20h45.03.155,Memory and Syntax,2023.2.3,Linux x86_64,59.88023952,,,,,234.8962,236.8907,o,1,0.8112,,236.8907,236.891,,0,236.891,236.8919,,236.8919,236.892,,0,103,103,103,1,cvmt/test_items/t104.jpeg,o,,,,,,,,,,,,,,,,,,,,,,,,
,,110723,198,1,2024-03-05_20h45.03.155,Memory and Syntax,2023.2.3,Linux x86_64,59.88023952,,,,,236.8924,238.8881,o,0,0.8239,,238.8882,238.8884,,0,238.8886,238.8891,,238.8891,238.8892,,0,104,104,104,1,cvmt/test_items/t105.jpeg,n,,,,,,,,,,,,,,,,,,,,,,,,
,,110723,198,1,2024-03-05_20h45.03.155,Memory and Syntax,2023.2.3,Linux x86_64,59.88023952,,,,,238.8898,240.8856,o,1,0.8574,,240.8857,240.8859,,0,240.8859,240.8864,,240.8864,240.8865,,0,105,105,105,1,cvmt/test_items/t106.jpeg,o,,,,,,,,,,,,,,,,,,,,,,,,
,,110723,198,1,2024-03-05_20h45.03.155,Memory and Syntax,2023.2.3,Linux x86_64,59.88023952,,,,,240.8867,242.8836,o,1,0.7545,,242.8837,242.8841,,0,242.8841,242.8847,,242.8847,242.8848,,0,106,106,106,1,cvmt/test_items/t107.jpeg,o,,,,,,,,,,,,,,,,,,,,,,,,
,,110723,198,1,2024-03-05_20h45.03.155,Memory and Syntax,2023.2.3,Linux x86_64,59.88023952,,,,,242.8851,244.8811,o,1,1.2172,,244.8811,244.8813,,0,244.8813,244.8818,,244.8819,244.882,,0,107,107,107,1,cvmt/test_items/t108.jpeg,o,,,,,,,,,,,,,,,,,,,,,,,,
,,110723,198,1,2024-03-05_20h45.03.155,Memory and Syntax,2023.2.3,Linux x86_64,59.88023952,,,,,244.8823,246.8786,o,1,0.6084,,246.8787,246.879,,0,246.879,246.8796,,246.8796,246.8798,,0,108,108,108,1,cvmt/test_items/t109.jpeg,o,,,,,,,,,,,,,,,,,,,,,,,,
,,110723,198,1,2024-03-05_20h45.03.155,Memory and Syntax,2023.2.3,Linux x86_64,59.88023952,,,,,246.8802,248.8762,o,1,0.6437,,248.8764,248.8766,,0,248.8766,248.8771,,248.8771,248.8773,,0,109,109,109,1,cvmt/test_items/t110.jpeg,o,,,,,,,,,,,,,,,,,,,,,,,,
,,110723,198,1,2024-03-05_20h45.03.155,Memory and Syntax,2023.2.3,Linux x86_64,59.88023952,,,,,248.8776,250.8738,o,1,0.2713,,250.8738,250.8744,,0,250.8744,250.875,,250.875,250.8751,,0,110,110,110,1,cvmt/test_items/t111.jpeg,o,,,,,,,,,,,,,,,,,,,,,,,,
,,110723,198,1,2024-03-05_20h45.03.155,Memory and Syntax,2023.2.3,Linux x86_64,59.88023952,,,,,250.8755,252.8714,o,1,0.6388,,252.8714,252.8717,,0,252.8717,252.8724,,252.8724,252.8725,,0,111,111,111,1,cvmt/test_items/t112.jpeg,o,,,,,,,,,,,,,,,,,,,,,,,,
,,110723,198,1,2024-03-05_20h45.03.155,Memory and Syntax,2023.2.3,Linux x86_64,59.88023952,,,,,252.8729,254.869,o,0,0.065,,254.869,254.8692,,0,254.8693,254.8702,,254.8702,254.8703,,0,112,112,112,1,cvmt/test_items/t113.jpeg,n,,,,,,,,,,,,,,,,,,,,,,,,
,,110723,198,1,2024-03-05_20h45.03.155,Memory and Syntax,2023.2.3,Linux x86_64,59.88023952,,,,,254.8707,256.8667,o,1,0.8423,,256.8668,256.867,,0,256.8671,256.8677,,256.8677,256.8678,,0,113,113,113,1,cvmt/test_items/t114.jpeg,o,,,,,,,,,,,,,,,,,,,,,,,,
,,110723,198,1,2024-03-05_20h45.03.155,Memory and Syntax,2023.2.3,Linux x86_64,59.88023952,,,,,256.8683,258.8642,o,1,0.5748,,258.8642,258.8645,,0,258.8645,258.865,,258.8651,258.8652,,0,114,114,114,1,cvmt/test_items/t115.jpeg,o,,,,,,,,,,,,,,,,,,,,,,,,
,,110723,198,1,2024-03-05_20h45.03.155,Memory and Syntax,2023.2.3,Linux x86_64,59.88023952,,,,,258.8657,260.8615,o,1,0.5393,,260.8616,260.8619,,0,260.8619,260.8625,,260.8625,260.8628,,0,115,115,115,1,cvmt/test_items/t116.jpeg,o,,,,,,,,,,,,,,,,,,,,,,,,
,,110723,198,1,2024-03-05_20h45.03.155,Memory and Syntax,2023.2.3,Linux x86_64,59.88023952,,,,,260.8633,262.859,o,1,0.5354,,262.859,262.8592,,0,262.8593,262.8597,,262.8597,262.8598,,0,116,116,116,1,cvmt/test_items/t117.jpeg,o,,,,,,,,,,,,,,,,,,,,,,,,
,,110723,198,1,2024-03-05_20h45.03.155,Memory and Syntax,2023.2.3,Linux x86_64,59.88023952,,,,,262.8601,264.8566,o,1,0.4662,,264.8566,264.8569,,0,264.8569,264.8575,,264.8575,264.8576,,0,117,117,117,1,cvmt/test_items/t118.jpeg,o,,,,,,,,,,,,,,,,,,,,,,,,
,,110723,198,1,2024-03-05_20h45.03.155,Memory and Syntax,2023.2.3,Linux x86_64,59.88023952,,,,,264.8579,266.8544,o,1,0.6471,,266.8544,266.8547,,0,266.8547,266.8552,,266.8552,266.8553,,0,118,118,118,1,cvmt/test_items/t119.jpeg,o,,,,,,,,,,,,,,,,,,,,,,,,
,,110723,198,1,2024-03-05_20h45.03.155,Memory and Syntax,2023.2.3,Linux x86_64,59.88023952,,,,,266.8556,268.8518,o,1,0.5135,,268.8518,268.8521,,0,268.8521,268.8527,,268.8528,268.8538,,0,119,119,119,1,cvmt/test_items/t120.jpeg,o,,,,,,,,,,,,,,,,,,,,,,,,
,,110723,198,1,2024-03-05_20h45.03.155,Memory and Syntax,2023.2.3,Linux x86_64,59.88023952,,,,,268.8542,270.8495,o,1,0.6062,,270.8495,270.8498,,0,270.8498,270.8504,,270.8504,270.8505,,0,120,120,120,1,cvmt/test_items/t121.jpeg,o,,,,,,,,,,,,,,,,,,,,,,,,
,,110723,198,1,2024-03-05_20h45.03.155,Memory and Syntax,2023.2.3,Linux x86_64,59.88023952,,,,,270.8509,272.8472,o,1,0.6334,,272.8473,272.8475,,0,272.8476,272.8481,,272.8481,272.8482,,0,121,121,121,1,cvmt/test_items/t122.jpeg,o,,,,,,,,,,,,,,,,,,,,,,,,
,,110723,198,1,2024-03-05_20h45.03.155,Memory and Syntax,2023.2.3,Linux x86_64,59.88023952,,,,,272.8485,274.8447,o,0,0.7001,,274.8447,274.8452,,0,274.8452,274.8465,,274.8465,274.8465,,0,122,122,122,1,cvmt/test_items/t123.jpeg,n,,,,,,,,,,,,,,,,,,,,,,,,
,,110723,198,1,2024-03-05_20h45.03.155,Memory and Syntax,2023.2.3,Linux x86_64,59.88023952,,,,,274.8469,276.842,o,1,0.5295,,276.842,276.8423,,0,276.8423,276.8429,,276.8429,276.843,,0,123,123,123,1,cvmt/test_items/t124.jpeg,o,,,,,,,,,,,,,,,,,,,,,,,,
,,110723,198,1,2024-03-05_20h45.03.155,Memory and Syntax,2023.2.3,Linux x86_64,59.88023952,,,,,276.8434,278.8399,o,1,0.338,,278.8399,278.8401,,0,278.8401,278.8406,,278.8406,278.8407,,0,124,124,124,1,cvmt/test_items/t125.jpeg,o,,,,,,,,,,,,,,,,,,,,,,,,
,,110723,198,1,2024-03-05_20h45.03.155,Memory and Syntax,2023.2.3,Linux x86_64,59.88023952,,,,,278.841,280.8374,o,1,0.2911,,280.8375,280.8378,,0,280.8379,280.8384,,280.8384,280.8385,,0,125,125,125,1,cvmt/test_items/t126.jpeg,o,,,,,,,,,,,,,,,,,,,,,,,,
,,110723,198,1,2024-03-05_20h45.03.155,Memory and Syntax,2023.2.3,Linux x86_64,59.88023952,,,,,280.8389,282.8355,o,1,0.5218,,282.8355,282.8361,,0,282.8361,282.8366,,282.8367,282.8367,,0,126,126,126,1,cvmt/test_items/t127.jpeg,o,,,,,,,,,,,,,,,,,,,,,,,,
,,110723,198,1,2024-03-05_20h45.03.155,Memory and Syntax,2023.2.3,Linux x86_64,59.88023952,,,,,282.8371,284.8325,o,1,0.5469,,284.8326,284.8328,,0,284.8328,284.8334,,284.8334,284.8335,,0,127,127,127,1,cvmt/test_items/t128.jpeg,o,,,,,,,,,,,,,,,,,,,,,,,,
,,110723,198,1,2024-03-05_20h45.03.155,Memory and Syntax,2023.2.3,Linux x86_64,59.88023952,,,,,284.8339,286.8302,o,1,0.5804,,286.8303,286.8306,,0,286.8306,286.831,,286.8311,286.8311,,0,128,128,128,1,cvmt/test_items/t129.jpeg,o,,,,,,,,,,,,,,,,,,,,,,,,
,,110723,198,1,2024-03-05_20h45.03.155,Memory and Syntax,2023.2.3,Linux x86_64,59.88023952,,,,,286.8316,288.8277,o,1,0.3355,,288.8278,288.8281,,0,288.8282,288.8286,,288.8287,288.8288,,0,129,129,129,1,cvmt/test_items/t130.jpeg,o,,,,,,,,,,,,,,,,,,,,,,,,
,,110723,198,1,2024-03-05_20h45.03.155,Memory and Syntax,2023.2.3,Linux x86_64,59.88023952,,,,,288.8291,290.825,o,0,0.8274,,290.825,290.8253,,0,290.8254,290.8259,,290.826,290.8261,,0,130,130,130,1,cvmt/test_items/t131.jpeg,n,,,,,,,,,,,,,,,,,,,,,,,,
,,110723,198,1,2024-03-05_20h45.03.155,Memory and Syntax,2023.2.3,Linux x86_64,59.88023952,,,,,290.8264,292.8228,o,1,0.4425,,292.8229,292.8231,,0,292.8232,292.8241,,292.8241,292.8241,,0,131,131,131,1,cvmt/test_items/t132.jpeg,o,,,,,,,,,,,,,,,,,,,,,,,,
,,110723,198,1,2024-03-05_20h45.03.155,Memory and Syntax,2023.2.3,Linux x86_64,59.88023952,,,,,292.8246,294.8209,o,1,0.6016,,294.8209,294.8212,,0,294.8212,294.8218,,294.8218,294.8219,,0,132,132,132,1,cvmt/test_items/t133.jpeg,o,,,,,,,,,,,,,,,,,,,,,,,,
,,110723,198,1,2024-03-05_20h45.03.155,Memory and Syntax,2023.2.3,Linux x86_64,59.88023952,,,,,294.8224,296.8186,o,1,0.5276,,296.8187,296.8191,,0,296.8191,296.8197,,296.8197,296.8198,,0,133,133,133,1,cvmt/test_items/t134.jpeg,o,,,,,,,,,,,,,,,,,,,,,,,,
,,110723,198,1,2024-03-05_20h45.03.155,Memory and Syntax,2023.2.3,Linux x86_64,59.88023952,,,,,296.8201,298.816,o,1,0.6824,,298.8161,298.8164,,0,298.8164,298.8169,,298.8169,298.817,,0,134,134,134,1,cvmt/test_items/t135.jpeg,o,,,,,,,,,,,,,,,,,,,,,,,,
,,110723,198,1,2024-03-05_20h45.03.155,Memory and Syntax,2023.2.3,Linux x86_64,59.88023952,,,,,,,,,,,,,,,,,,,,,,,,,,,,,,298.8176,298.8179,0.0002,298.8432,301.1139,space,1.2973,,301.1315,304.7633,5.5,3.6272,0,0,0,0,1,2,1,filler,18A,"Jason drove his car, and Tara rode her bike."
,,110723,198,1,2024-03-05_20h45.03.155,Memory and Syntax,2023.2.3,Linux x86_64,59.88023952,,,,,,,,,,,,,,,,,,,,,,,,,,,,,,,,,,,,,,304.7639,307.2221,4.4,2.4467,0,1,1,1,1,2,2,WO,15A,You watered the tiny cactus.
,,110723,198,1,2024-03-05_20h45.03.155,Memory and Syntax,2023.2.3,Linux x86_64,59.88023952,,,,,,,,,,,,,,,,,,,,,,,,,,,,,,,,,,,,,,307.2226,309.7357,3.2,2.5038,0,2,2,2,1,2,3,control,19B,The flowers plant seasonally to attract hummingbirds.
,,110723,198,1,2024-03-05_20h45.03.155,Memory and Syntax,2023.2.3,Linux x86_64,59.88023952,,,,,,,,,,,,,,,,,,,,,,,,,,,,,,,,,,,,,,309.7362,312.1668,2.7,2.4177,0,3,3,3,1,2,4,WOV,20B,Created Fatima a minimalistic website.
,,110723,198,1,2024-03-05_20h45.03.155,Memory and Syntax,2023.2.3,Linux x86_64,59.88023952,,,,,,,,,,,,,,,,,,,,,,,,,,,,,,,,,,,,,,312.1672,314.5797,4.5,2.4039,0,4,4,4,1,2,5,WO,14A,Many people attended the book release.
,,110723,198,1,2024-03-05_20h45.03.155,Memory and Syntax,2023.2.3,Linux x86_64,59.88023952,,,,,,,,,,,,,,,,,,,,,,,,,,,,,,,,,,,,,,314.5808,317.0432,1.7,2.4502,0,5,5,5,1,2,6,control,22B,Anywhere has nobody gone.
,,110723,198,1,2024-03-05_20h45.03.155,Memory and Syntax,2023.2.3,Linux x86_64,59.88023952,,,,,,,,,,,,,,,,,,,,,,,,,,,,,,,,,,,,,,317.0437,319.5911,5.6,2.5423,0,6,6,6,1,2,7,filler,17A,A dog bigger than my corgi snarled.
,,110723,198,1,2024-03-05_20h45.03.155,Memory and Syntax,2023.2.3,Linux x86_64,59.88023952,,,,,,,,,,,,,,,,,,,,,,,,,,,,,,,,,,,,,,319.5915,322.0885,4.2,2.4841,0,7,7,7,1,2,8,filler,15A,There are leaves burnt.
,,110723,198,1,2024-03-05_20h45.03.155,Memory and Syntax,2023.2.3,Linux x86_64,59.88023952,,,,,,,,,,,,,,,,,,,,,,,,,,,,,,,,,,,,,,322.0891,324.7509,3.2,2.6541,0,8,8,8,1,2,9,WOV,22B,Enjoyed we the sunset on the beach.
,,110723,198,1,2024-03-05_20h45.03.155,Memory and Syntax,2023.2.3,Linux x86_64,59.88023952,,,,,,,,,,,,,,,,,,,,,,,,,,,,,,,,,,,,,,324.7514,327.6817,6,2.9183,0,9,9,9,1,2,10,ASV,22B,Haru hid herself from the manager's wrath.
,,110723,198,1,2024-03-05_20h45.03.155,Memory and Syntax,2023.2.3,Linux x86_64,59.88023952,,,,,,,,,,,,,,,,,,,,,,,,,,,,,,,,,,,,,,327.6822,330.2444,5.8,2.5514,0,10,10,10,1,2,11,WO,18A,The cat pushed the dog off the couch.
,,110723,198,1,2024-03-05_20h45.03.155,Memory and Syntax,2023.2.3,Linux x86_64,59.88023952,,,,,,,,,,,,,,,,,,,,,,,,,,,,,,,,,,,,,,330.2449,332.7262,5.5,2.4787,0,11,11,11,1,2,12,WO,13A,Janelle painted the fence.
,,110723,198,1,2024-03-05_20h45.03.155,Memory and Syntax,2023.2.3,Linux x86_64,59.88023952,,,,,,,,,,,,,,,,,,,,,,,,,,,,,,,,,,,,,,332.7267,335.2718,6.3,2.5418,0,12,12,12,1,2,13,filler,13A,Carla appears to have graduated high school.
,,110723,198,1,2024-03-05_20h45.03.155,Memory and Syntax,2023.2.3,Linux x86_64,59.88023952,,,,,,,,,,,,,,,,,,,,,,,,,,,,,,,,,,,,,,335.2723,337.7347,6,2.4561,0,13,13,13,1,2,14,AS,17A,He cried tears of joy at the heartwarming reunion.
,,110723,198,1,2024-03-05_20h45.03.155,Memory and Syntax,2023.2.3,Linux x86_64,59.88023952,,,,,,,,,,,,,,,,,,,,,,,,,,,,,,,,,,,,,,337.7352,340.9477,5.6,3.2086,0,14,14,14,1,2,15,WO,16A,Armadillos dug several holes.
,,110723,198,1,2024-03-05_20h45.03.155,Memory and Syntax,2023.2.3,Linux x86_64,59.88023952,,,,,,,,,,,,,,,,,,,,,,,,,,,,,,,,,,,,,,340.9482,343.2117,3,2.2524,0,15,15,15,1,2,16,ASV,24B,She ascended herself the ladder.
,,110723,198,1,2024-03-05_20h45.03.155,Memory and Syntax,2023.2.3,Linux x86_64,59.88023952,,,,,,,,,,,,,,,,,,,,,,,,,,,,,,,,,,,,,,343.2123,345.6418,2.7,2.4239,0,16,16,16,1,2,17,WOV,24B,Forgot she her keys at home.
,,110723,198,1,2024-03-05_20h45.03.155,Memory and Syntax,2023.2.3,Linux x86_64,59.88023952,,,,,,,,,,,,,,,,,,,,,,,,,,,,,,,,,,,,,,345.6423,348.8717,5.4,3.2259,0,17,17,17,1,2,18,ASV,23B,She loved herself the market a lot.
,,110723,198,1,2024-03-05_20h45.03.155,Memory and Syntax,2023.2.3,Linux x86_64,59.88023952,,,,,,,,,,,,,,,,,,,,,,,,,,,,,,,,,,,,,,348.8722,351.352,1.2,2.469,0,18,18,18,1,2,19,control,24B,The government gives any help to no poor people.
,,110723,198,1,2024-03-05_20h45.03.155,Memory and Syntax,2023.2.3,Linux x86_64,59.88023952,,,,,,,,,,,,,,,,,,,,,,,,,,,,,,,,,,,,,,351.3525,353.999,1,2.64,0,19,19,19,1,2,20,ASV,20B,They laughed themselves at the joke.
,,110723,198,1,2024-03-05_20h45.03.155,Memory and Syntax,2023.2.3,Linux x86_64,59.88023952,,,,,,,,,,,,,,,,,,,,,,,,,,,,,,,,,,,,,,353.9995,357.178,5.1,3.1686,0,20,20,20,1,2,21,WOV,23B,Kissed Nova their child's forehead.
,,110723,198,1,2024-03-05_20h45.03.155,Memory and Syntax,2023.2.3,Linux x86_64,59.88023952,,,,,,,,,,,,,,,,,,,,,,,,,,,,,,,,,,,,,,357.1786,360.8901,5.7,3.7005,0,21,21,21,1,2,22,filler,14A,Angelica and Alberto hate each other.
,,110723,198,1,2024-03-05_20h45.03.155,Memory and Syntax,2023.2.3,Linux x86_64,59.88023952,,,,,,,,,,,,,,,,,,,,,,,,,,,,,,,,,,,,,,360.8905,363.3873,3.4,2.4936,0,22,22,22,1,2,23,control,23B,I seem eating sushi.
,,110723,198,1,2024-03-05_20h45.03.155,Memory and Syntax,2023.2.3,Linux x86_64,59.88023952,,,,,,,,,,,,,,,,,,,,,,,,,,,,,,,,,,,,,,363.3877,365.9676,6.5,2.5722,0,23,23,23,1,2,24,AS,16A,He solved the complicated puzzle.
,,110723,198,1,2024-03-05_20h45.03.155,Memory and Syntax,2023.2.3,Linux x86_64,59.88023952,,,,,,,,,,,,,,,,,,,,,,,,,,,,,,,,,,,,,,365.9681,368.814,5.6,2.841,0,24,24,24,1,2,25,AS,13A,You were bored with the book.
,,110723,198,1,2024-03-05_20h45.03.155,Memory and Syntax,2023.2.3,Linux x86_64,59.88023952,,,,,,,,,,,,,,,,,,,,,,,,,,,,,,,,,,,,,,368.8145,371.2448,6.1,2.4249,0,25,25,25,1,2,26,ASV,21B,The villagers scattered themselves in all directions.
,,110723,198,1,2024-03-05_20h45.03.155,Memory and Syntax,2023.2.3,Linux x86_64,59.88023952,,,,,,,,,,,,,,,,,,,,,,,,,,,,,,,,,,,,,,371.2453,373.7415,5.4,2.4836,0,26,26,26,1,2,27,WO,17A,She pulled the blinds hurriedly.
,,110723,198,1,2024-03-05_20h45.03.155,Memory and Syntax,2023.2.3,Linux x86_64,59.88023952,,,,,,,,,,,,,,,,,,,,,,,,,,,,,,,,,,,,,,373.7421,377.7368,5.1,3.984,0,27,27,27,1,2,28,AS,14A,A dog tumbled down the hill.
,,110723,198,1,2024-03-05_20h45.03.155,Memory and Syntax,2023.2.3,Linux x86_64,59.88023952,,,,,,,,,,,,,,,,,,,,,,,,,,,,,,,,,,,,,,377.7372,380.5169,5.3,2.772,0,28,28,28,1,2,29,ASV,19B,The pastor fell himself down the stairs.
,,110723,198,1,2024-03-05_20h45.03.155,Memory and Syntax,2023.2.3,Linux x86_64,59.88023952,,,,,,,,,,,,,,,,,,,,,,,,,,,,,,,,,,,,,,380.5174,383.9957,3.1,3.4722,0,29,29,29,1,2,30,control,21B,There desires to be a new deal in the works.
,,110723,198,1,2024-03-05_20h45.03.155,Memory and Syntax,2023.2.3,Linux x86_64,59.88023952,,,,,,,,,,,,,,,,,,,,,,,,,,,,,,,,,,,,,,383.9962,387.1923,5.9,3.1835,0,30,30,30,1,2,31,AS,18A,The teacher was tired of the bland school lunches.
,,110723,198,1,2024-03-05_20h45.03.155,Memory and Syntax,2023.2.3,Linux x86_64,59.88023952,,,,,,,,,,,,,,,,,,,,,,,,,,,,,,,,,,,,,,387.1927,389.6887,5.8,2.4867,0,31,31,31,1,2,32,AS,15A,The patient calmed down.
,,110723,198,1,2024-03-05_20h45.03.155,Memory and Syntax,2023.2.3,Linux x86_64,59.88023952,,,,,,,,,,,,,,,,,,,,,,,,,,,,,,,,,,,,,,389.6892,392.2024,5.6,2.504,0,32,32,32,1,2,33,WOV,21B,Bought Mona the car.
,,110723,198,1,2024-03-05_20h45.03.155,Memory and Syntax,2023.2.3,Linux x86_64,59.88023952,,,,,,,,,,,,,,,,,,,,,,,,,,,,,,,,,,,,,,392.2034,396.447,3.4,4.2394,0,33,33,33,1,2,34,WOV,19B,Debated the historian the actor.
,,110723,198,1,2024-03-05_20h45.03.155,Memory and Syntax,2023.2.3,Linux x86_64,59.88023952,,,,,,,,,,,,,,,,,,,,,,,,,,,,,,,,,,,,,,396.4474,399.4602,5.6,3.0043,0,34,34,34,1,2,35,control,20B,"If Aarthi probably comes, the party will be a disaster."