load.started,load.stopped,Sona ID,Participant ID,Session,date,expName,psychopyVersion,OS,frameRate,cvmtInstr.started,cvmtInstr.stopped,cvmtTaskInstr.started,cvmtTaskInstr.stopped,presentDesign.started,presentDesign.stopped,cvmt_key_resp.keys,cvmt_key_resp.corr,cvmtNoResp.started,cvmtNoResp.stopped,cvmt_key_resp2.keys,cvmt_key_resp2.corr,cvmt_key_resp2.rt,cvmt_key_resp2.duration,cvmtSampleFB.started,cvmtSampleFB.stopped,key_resp_15.keys,cvmtSampleFBFinal.started,cvmtSampleFBFinal.stopped,cvmt_final_samp_fb_key_resp.keys,cvmtTrials.thisRepN,cvmtTrials.thisTrialN,cvmtTrials.thisN,cvmtTrials.thisIndex,cvmtTrials.ran,cvmt_design,old_or_new,cvmt_key_resp.rt,cvmt_key_resp.duration,key_resp_15.rt,key_resp_15.duration,cvmt_final_samp_fb_key_resp.rt,cvmt_final_samp_fb_key_resp.duration,cvmtDelay.started,cvmtDelay.stopped,cvmt timer,engAJT_instr.started,engAJT_instr.stopped,start_ajt.keys,start_ajt.rt,start_ajt.duration,engAJT.started,engAJT.stopped,acceptability.response,acceptability.rt,engAJT_trials.thisRepN,engAJT_trials.thisTrialN,engAJT_trials.thisN,engAJT_trials.thisIndex,engAJT_trials.ran,ajt_list,list_position,condition,item,testSent
0.0005,0.0778,110723,052,1,2024-03-05_20h35.29.508,Memory and Syntax,2023.2.3,Linux x86_64,59.52380952,,,,,,,,,,,,,,,,,,,,,,,,,,,,,,,,,,,,,,,,,,,,,,,,,,,,,,,
,,110723,052,1,2024-03-05_20h35.29.508,Memory and Syntax,2023.2.3,Linux x86_64,59.52380952,0.1435,22.9938,23.014,28.451,28.5924,30.4644,,0,30.4657,33.2297,n,1,2.7375,,33.2309,33.2456,,33.2474,33.2516,,0,0,0,0,1,cvmt/sample/s1.jpg,n,,,,,,,,,,,,,,,,,,,,,,,,,,,,
,,110723,052,1,2024-03-05_20h35.29.508,Memory and Syntax,2023.2.3,Linux x86_64,59.52380952,,,,,33.2551,35.2584,n,1,35.2593,35.2616,,0,,,35.2628,35.2653,,35.2663,35.2683,,0,1,1,1,1,cvmt/sample/s2.jpg,n,1.0789,,,,,,,,,,,,,,,,,,,,,,,,,,,
,,110723,052,1,2024-03-05_20h35.29.508,Memory and Syntax,2023.2.3,Linux x86_64,59.52380952,,,,,35.2725,37.2725,n,0,37.2737,37.2758,,0,,,37.2767,42.4828,c,42.484,42.4861,,0,2,2,2,1,cvmt/sample/s3.jpg,o,1.4235,,5.181,,,,,,,,,,,,,,,,,,,,,,,,,
,,110723,052,1,2024-03-05_20h35.29.508,Memory and Syntax,2023.2.3,Linux x86_64,59.52380952,,,,,42.4992,44.497,n,1,44.498,44.5019,,0,,,44.5028,44.5074,,44.5083,44.5103,,0,3,3,3,1,cvmt/sample/s4.jpg,n,0.9438,,,,,,,,,,,,,,,,,,,,,,,,,,,
,,110723,052,1,2024-03-05_20h35.29.508,Memory and Syntax,2023.2.3,Linux x86_64,59.52380952,,,,,44.5134,46.5115,n,1,46.5125,46.5147,,0,,,46.5156,46.5184,,46.5192,46.5212,,0,4,4,4,1,cvmt/sample/s5.jpg,n,0.5257,,,,,,,,,,,,,,,,,,,,,,,,,,,
,,110723,052,1,2024-03-05_20h35.29.508,Memory and Syntax,2023.2.3,Linux x86_64,59.52380952,,,,,46.5245,48.5257,n,1,48.5267,48.5288,,0,,,48.5297,48.532,,48.533,48.535,,0,5,5,5,1,cvmt/sample/s6.jpg,n,0.8274,,,,,,,,,,,,,,,,,,,,,,,,,,,
,,110723,052,1,2024-03-05_20h35.29.508,Memory and Syntax,2023.2.3,Linux x86_64,59.52380952,,,,,48.5381,50.54,o,1,50.541,50.5432,,0,,,50.5442,50.5473,,50.5483,50.5504,,0,6,6,6,1,cvmt/sample/s7.jpg,o,1.0066,,,,,,,,,,,,,,,,,,,,,,,,,,,
,,110723,052,1,2024-03-05_20h35.29.508,Memory and Syntax,2023.2.3,Linux x86_64,59.52380952,,,,,50.5535,52.5547,o,0,52.5557,52.558,,0,,,52.5589,52.5697,,52.5707,52.5729,,0,7,7,7,1,cvmt/sample/s8.jpg,n,0.8594,,,,,,,,,,,,,,,,,,,,,,,,,,,
,,110723,052,1,2024-03-05_20h35.29.508,Memory and Syntax,2023.2.3,Linux x86_64,59.52380952,,,,,52.5761,54.5696,n,1,54.5705,54.5725,,0,,,54.5735,54.5758,,54.5768,54.5787,,0,8,8,8,1,cvmt/sample/s9.jpg,n,0.6816,,,,,,,,,,,,,,,,,,,,,,,,,,,
,,110723,052,1,2024-03-05_20h35.29.508,Memory and Syntax,2023.2.3,Linux x86_64,59.52380952,,,,,54.5818,56.5823,n,1,56.5833,56.5857,,0,,,56.5867,56.5891,,56.59,56.5919,,0,9,9,9,1,cvmt/sample/s10.jpg,n,0.6234,,,,,,,,,,,,,,,,,,,,,,,,,,,
,,110723,052,1,2024-03-05_20h35.29.508,Memory and Syntax,2023.2.3,Linux x86_64,59.52380952,,,,,56.5955,58.5968,o,1,58.5978,58.5999,,0,,,58.6007,58.6033,,58.6043,62.8702,c,0,10,10,10,1,cvmt/sample/s11.jpg,o,0.7887,,,,4.2266,,,,,,,,,,,,,,,,,,,,,,,
,,110723,052,1,2024-03-05_20h35.29.508,Memory and Syntax,2023.2.3,Linux x86_64,59.52380952,,,62.8743,66.9364,66.9625,68.9502,n,1,68.9503,68.9522,,0,,,68.9523,68.9528,,68.9529,68.9559,,0,0,0,0,1,cvmt/test_items/t1.jpeg,n,0.7537,,,,,,,,,,,,,,,,,,,,,,,,,,,
,,110723,052,1,2024-03-05_20h35.29.508,Memory and Syntax,2023.2.3,Linux x86_64,59.52380952,,,,,68.9564,70.9475,n,1,70.9476,70.9478,,0,,,70.9478,70.9483,,70.9483,70.9484,,0,1,1,1,1,cvmt/test_items/t2.jpeg,n,0.4707,,,,,,,,,,,,,,,,,,,,,,,,,,,
,,110723,052,1,2024-03-05_20h35.29.508,Memory and Syntax,2023.2.3,Linux x86_64,59.52380952,,,,,70.9487,72.945,n,0,72.945,72.9453,,0,,,72.9453,72.9461,,72.9462,72.9462,,0,2,2,2,1,cvmt/test_items/t3.jpeg,o,0.5582,,,,,,,,,,,,,,,,,,,,,,,,,,,
,,110723,052,1,2024-03-05_20h35.29.508,Memory and Syntax,2023.2.3,Linux x86_64,59.52380952,,,,,72.9466,74.9428,n,0,74.9428,74.9432,,0,,,74.9432,74.9438,,74.9438,74.944,,0,3,3,3,1,cvmt/test_items/t4.jpeg,o,0.4827,,,,,,,,,,,,,,,,,,,,,,,,,,,
,,110723,052,1,2024-03-05_20h35.29.508,Memory and Syntax,2023.2.3,Linux x86_64,59.52380952,,,,,74.9444,76.9407,n,0,76.9407,76.9409,,0,,,76.9409,76.9415,,76.9415,76.9415,,0,4,4,4,1,cvmt/test_items/t5.jpeg,o,0.465,,,,,,,,,,,,,,,,,,,,,,,,,,,
,,110723,052,1,2024-03-05_20h35.29.508,Memory and Syntax,2023.2.3,Linux x86_64,59.52380952,,,,,76.9418,78.9379,n,0,78.938,78.9382,,0,,,78.9382,78.9387,,78.9388,78.9389,,0,5,5,5,1,cvmt/test_items/t6.jpeg,o,0.9644,,,,,,,,,,,,,,,,,,,,,,,,,,,
,,110723,052,1,2024-03-05_20h35.29.508,Memory and Syntax,2023.2.3,Linux x86_64,59.52380952,,,,,78.9393,80.9361,n,0,80.9361,80.9364,,0,,,80.9365,80.9373,,80.9374,80.9375,,0,6,6,6,1,cvmt/test_items/t7.jpeg,o,0.5523,,,,,,,,,,,,,,,,,,,,,,,,,,,
,,110723,052,1,2024-03-05_20h35.29.508,Memory and Syntax,2023.2.3,Linux x86_64,59.52380952,,,,,80.938,82.933,o,1,82.9332,82.9334,,0,,,82.9334,82.934,,82.9341,82.9342,,0,7,7,7,1,cvmt/test_items/t8.jpeg,o,0.6856,,,,,,,,,,,,,,,,,,,,,,,,,,,
,,110723,052,1,2024-03-05_20h35.29.508,Memory and Syntax,2023.2.3,Linux x86_64,59.52380952,,,,,82.9346,84.9305,n,0,84.9305,84.9307,,0,,,84.9307,84.9313,,84.9313,84.9313,,0,8,8,8,1,cvmt/test_items/t9.jpeg,o,0.8297,,,,,,,,,,,,,,,,,,,,,,,,,,,
,,110723,052,1,2024-03-05_20h35.29.508,Memory and Syntax,2023.2.3,Linux x86_64,59.52380952,,,,,84.9317,86.9285,n,0,86.9285,86.9289,,0,,,86.9289,86.9294,,86.9296,86.9296,,0,9,9,9,1,cvmt/test_items/t10.jpeg,o,0.7146,,,,,,,,,,,,,,,,,,,,,,,,,,,
,,110723,052,1,2024-03-05_20h35.29.508,Memory and Syntax,2023.2.3,Linux x86_64,59.52380952,,,,,86.93,88.9264,n,1,88.9265,88.9268,,0,,,88.9269,88.9275,,88.9275,88.9276,,0,10,10,10,1,cvmt/test_items/t11.jpeg,n,0.8499,,,,,,,,,,,,,,,,,,,,,,,,,,,
,,110723,052,1,2024-03-05_20h35.29.508,Memory and Syntax,2023.2.3,Linux x86_64,59.52380952,,,,,88.928,90.9242,n,0,90.9243,90.9244,,0,,,90.9244,90.925,,90.925,90.925,,0,11,11,11,1,cvmt/test_items/t12.jpeg,o,0.5765,,,,,,,,,,,,,,,,,,,,,,,,,,,
,,110723,052,1,2024-03-05_20h35.29.508,Memory and Syntax,2023.2.3,Linux x86_64,59.52380952,,,,,90.9254,92.921,o,1,92.9211,92.9213,,0,,,92.9213,92.9219,,92.9219,92.922,,0,12,12,12,1,cvmt/test_items/t13.jpeg,o,0.742,,,,,,,,,,,,,,,,,,,,,,,,,,,
,,110723,052,1,2024-03-05_20h35.29.508,Memory and Syntax,2023.2.3,Linux x86_64,59.52380952,,,,,92.9224,94.9184,o,1,94.9186,94.9187,,0,,,94.9189,94.9194,,94.9194,94.9195,,0,13,13,13,1,cvmt/test_items/t14.jpeg,o,0.6507,,,,,,,,,,,,,,,,,,,,,,,,,,,
,,110723,052,1,2024-03-05_20h35.29.508,Memory and Syntax,2023.2.3,Linux x86_64,59.52380952,,,,,94.9199,96.9161,o,1,96.9162,96.9167,,0,,,96.9167,96.9174,,96.9174,96.9174,,0,14,14,14,1,cvmt/test_items/t15.jpeg,o,0.7009,,,,,,,,,,,,,,,,,,,,,,,,,,,
,,110723,052,1,2024-03-05_20h35.29.508,Memory and Syntax,2023.2.3,Linux x86_64,59.52380952,,,,,96.9179,98.9155,o,1,98.9156,98.9158,,0,,,98.9158,98.9164,,98.9164,98.9164,,0,15,15,15,1,cvmt/test_items/t16.jpeg,o,0.8144,,,,,,,,,,,,,,,,,,,,,,,,,,,
,,110723,052,1,2024-03-05_20h35.29.508,Memory and Syntax,2023.2.3,Linux x86_64,59.52380952,,,,,98.9168,100.9118,n,0,100.9118,100.912,,0,,,100.9121,100.9126,,100.9126,100.9128,,0,16,16,16,1,cvmt/test_items/t17.jpeg,o,1.3792,,,,,,,,,,,,,,,,,,,,,,,,,,,
,,110723,052,1,2024-03-05_20h35.29.508,Memory and Syntax,2023.2.3,Linux x86_64,59.52380952,,,,,100.9132,102.909,n,0,102.909,102.9093,,0,,,102.9093,102.9097,,102.9097,102.9098,,0,17,17,17,1,cvmt/test_items/t18.jpeg,o,0.4888,,,,,,,,,,,,,,,,,,,,,,,,,,,
,,110723,052,1,2024-03-05_20h35.29.508,Memory and Syntax,2023.2.3,Linux x86_64,59.52380952,,,,,102.9101,104.9068,n,1,104.9068,104.907,,0,,,104.9071,104.9075,,104.9076,104.9077,,0,18,18,18,1,cvmt/test_items/t19.jpeg,n,0.6497,,,,,,,,,,,,,,,,,,,,,,,,,,,
,,110723,052,1,2024-03-05_20h35.29.508,Memory and Syntax,2023.2.3,Linux x86_64,59.52380952,,,,,104.908,106.9042,n,0,106.9043,106.9045,,0,,,106.9046,106.905,,106.9051,106.9051,,0,19,19,19,1,cvmt/test_items/t20.jpeg,o,1.4125,,,,,,,,,,,,,,,,,,,,,,,,,,,
,,110723,052,1,2024-03-05_20h35.29.508,Memory and Syntax,2023.2.3,Linux x86_64,59.52380952,,,,,106.9055,108.9014,n,0,108.9017,108.9018,,0,,,108.9019,108.9029,,108.903,108.903,,0,20,20,20,1,cvmt/test_items/t21.jpeg,o,1.033,,,,,,,,,,,,,,,,,,,,,,,,,,,
,,110723,052,1,2024-03-05_20h35.29.508,Memory and Syntax,2023.2.3,Linux x86_64,59.52380952,,,,,108.9034,110.8993,o,1,110.8993,110.8997,,0,,,110.8997,110.9001,,110.9002,110.9003,,0,21,21,21,1,cvmt/test_items/t22.jpeg,o,0.7856,,,,,,,,,,,,,,,,,,,,,,,,,,,
,,110723,052,1,2024-03-05_20h35.29.508,Memory and Syntax,2023.2.3,Linux x86_64,59.52380952,,,,,110.9005,112.8965,n,1,112.8966,112.8967,,0,,,112.8967,112.8972,,112.8972,112.8972,,0,22,22,22,1,cvmt/test_items/t23.jpeg,n,1.0433,,,,,,,,,,,,,,,,,,,,,,,,,,,
,,110723,052,1,2024-03-05_20h35.29.508,Memory and Syntax,2023.2.3,Linux x86_64,59.52380952,,,,,112.8975,114.8943,n,1,114.8943,114.8946,,0,,,114.8947,114.895,,114.895,114.8952,,0,23,23,23,1,cvmt/test_items/t24.jpeg,n,0.8509,,,,,,,,,,,,,,,,,,,,,,,,,,,
,,110723,052,1,2024-03-05_20h35.29.508,Memory and Syntax,2023.2.3,Linux x86_64,59.52380952,,,,,114.8954,116.8916,o,1,116.8917,116.8919,,0,,,116.892,116.8927,,116.8928,116.8929,,0,24,24,24,1,cvmt/test_items/t25.jpeg,o,0.7171,,,,,,,,,,,,,,,,,,,,,,,,,,,
,,110723,052,1,2024-03-05_20h35.29.508,Memory and Syntax,2023.2.3,Linux x86_64,59.52380952,,,,,116.8932,118.8897,o,0,118.8897,118.8902,,0,,,118.8903,118.8908,,118.8908,118.891,,0,25,25,25,1,cvmt/test_items/t26.jpeg,n,1.0585,,,,,,,,,,,,,,,,,,,,,,,,,,,
,,110723,052,1,2024-03-05_20h35.29.508,Memory and Syntax,2023.2.3,Linux x86_64,59.52380952,,,,,118.8913,120.8872,o,1,120.8872,120.8875,,0,,,120.8876,120.8881,,120.8881,120.8882,,0,26,26,26,1,cvmt/test_items/t27.jpeg,o,0.7655,,,,,,,,,,,,,,,,,,,,,,,,,,,
,,110723,052,1,2024-03-05_20h35.29.508,Memory and Syntax,2023.2.3,Linux x86_64,59.52380952,,,,,120.8886,122.8848,n,1,122.8848,122.8852,,0,,,122.8853,122.886,,122.8861,122.8862,,0,27,27,27,1,cvmt/test_items/t28.jpeg,n,0.8233,,,,,,,,,,,,,,,,,,,,,,,,,,,
,,110723,052,1,2024-03-05_20h35.29.508,Memory and Syntax,2023.2.3,Linux x86_64,59.52380952,,,,,122.8866,124.8822,n,1,124.8822,124.8824,,0,,,124.8824,124.8829,,124.8829,124.883,,0,28,28,28,1,cvmt/test_items/t29.jpeg,n,1.0235,,,,,,,,,,,,,,,,,,,,,,,,,,,
,,110723,052,1,2024-03-05_20h35.29.508,Memory and Syntax,2023.2.3,Linux x86_64,59.52380952,,,,,124.8837,126.8794,o,1,126.8795,126.8797,,0,,,126.8798,126.8803,,126.8804,126.8804,,0,29,29,29,1,cvmt/test_items/t30.jpeg,o,0.9517,,,,,,,,,,,,,,,,,,,,,,,,,,,
,,110723,052,1,2024-03-05_20h35.29.508,Memory and Syntax,2023.2.3,Linux x86_64,59.52380952,,,,,126.8809,128.8775,o,1,128.8775,128.8777,,0,,,128.8778,128.8783,,128.8783,128.8785,,0,30,30,30,1,cvmt/test_items/t31.jpeg,o,0.8431,,,,,,,,,,,,,,,,,,,,,,,,,,,
,,110723,052,1,2024-03-05_20h35.29.508,Memory and Syntax,2023.2.3,Linux x86_64,59.52380952,,,,,128.879,130.875,o,0,130.8751,130.876,,0,,,130.8761,130.8766,,130.8767,130.8768,,0,31,31,31,1,cvmt/test_items/t32.jpeg,n,0.9346,,,,,,,,,,,,,,,,,,,,,,,,,,,
,,110723,052,1,2024-03-05_20h35.29.508,Memory and Syntax,2023.2.3,Linux x86_64,59.52380952,,,,,130.8772,132.8727,n,1,132.8727,132.8731,,0,,,132.8731,132.8736,,132.8736,132.8738,,0,32,32,32,1,cvmt/test_items/t33.jpeg,n,0.7596,,,,,,,,,,,,,,,,,,,,,,,,,,,
,,110723,052,1,2024-03-05_20h35.29.508,Memory and Syntax,2023.2.3,Linux x86_64,59.52380952,,,,,132.8742,134.8698,o,1,134.8699,134.8701,,0,,,134.8702,134.8707,,134.8708,134.8709,,0,33,33,33,1,cvmt/test_items/t34.jpeg,o,0.7655,,,,,,,,,,,,,,,,,,,,,,,,,,,
,,110723,052,1,2024-03-05_20h35.29.508,Memory and Syntax,2023.2.3,Linux x86_64,59.52380952,,,,,134.8713,136.8675,n,1,136.8676,136.8678,,0,,,136.8679,136.8687,,136.8687,136.8688,,0,34,34,34,1,cvmt/test_items/t35.jpeg,n,1.2795,,,,,,,,,,,,,,,,,,,,,,,,,,,
,,110723,052,1,2024-03-05_20h35.29.508,Memory and Syntax,2023.2.3,Linux x86_64,59.52380952,,,,,136.8692,138.8654,o,1,138.8654,138.8657,,0,,,138.8658,138.8662,,138.8663,138.8663,,0,35,35,35,1,cvmt/test_items/t36.jpeg,o,0.6254,,,,,,,,,,,,,,,,,,,,,,,,,,,
,,110723,052,1,2024-03-05_20h35.29.508,Memory and Syntax,2023.2.3,Linux x86_64,59.52380952,,,,,138.8666,140.8628,n,1,140.8629,140.8631,,0,,,140.8632,140.8636,,140.8637,140.8638,,0,36,36,36,1,cvmt/test_items/t37.jpeg,n,0.9886,,,,,,,,,,,,,,,,,,,,,,,,,,,
,,110723,052,1,2024-03-05_20h35.29.508,Memory and Syntax,2023.2.3,Linux x86_64,59.52380952,,,,,140.864,142.8604,o,1,142.8605,142.8607,,0,,,142.8608,142.8613,,142.8613,142.8614,,0,37,37,37,1,cvmt/test_items/t38.jpeg,o,0.8021,,,,,,,,,,,,,,,,,,,,,,,,,,,
,,110723,052,1,2024-03-05_20h35.29.508,Memory and Syntax,2023.2.3,Linux x86_64,59.52380952,,,,,142.8617,144.8579,n,1,144.8579,144.8582,,0,,,144.8582,144.8586,,144.8586,144.8586,,0,38,38,38,1,cvmt/test_items/t39.jpeg,n,0.8314,,,,,,,,,,,,,,,,,,,,,,,,,,,
,,110723,052,1,2024-03-05_20h35.29.508,Memory and Syntax,2023.2.3,Linux x86_64,59.52380952,,,,,144.8589,146.8556,n,0,146.8557,146.8559,,0,,,146.8559,146.8568,,146.8568,146.8569,,0,39,39,39,1,cvmt/test_items/t40.jpeg,o,0.8859,,,,,,,,,,,,,,,,,,,,,,,,,,,
,,110723,052,1,2024-03-05_20h35.29.508,Memory and Syntax,2023.2.3,Linux x86_64,59.52380952,,,,,146.8573,148.8593,n,1,148.8593,148.8603,,0,,,148.8603,148.8608,,148.8608,148.8609,,0,40,40,40,1,cvmt/test_items/t41.jpeg,n,0.5587,,,,,,,,,,,,,,,,,,,,,,,,,,,
,,110723,052,1,2024-03-05_20h35.29.508,Memory and Syntax,2023.2.3,Linux x86_64,59.52380952,,,,,148.8612,150.8507,o,1,150.8507,150.8513,,0,,,150.8513,150.8518,,150.8519,150.8519,,0,41,41,41,1,cvmt/test_items/t42.jpeg,o,0.6002,,,,,,,,,,,,,,,,,,,,,,,,,,,
,,110723,052,1,2024-03-05_20h35.29.508,Memory and Syntax,2023.2.3,Linux x86_64,59.52380952,,,,,150.8523,152.8483,o,1,152.8484,152.8486,,0,,,152.8487,152.8492,,152.8492,152.8493,,0,42,42,42,1,cvmt/test_items/t43.jpeg,o,0.6588,,,,,,,,,,,,,,,,,,,,,,,,,,,
,,110723,052,1,2024-03-05_20h35.29.508,Memory and Syntax,2023.2.3,Linux x86_64,59.52380952,,,,,152.8496,154.8456,n,1,154.8457,154.846,,0,,,154.846,154.8469,,154.8469,154.8471,,0,43,43,43,1,cvmt/test_items/t44.jpeg,n,0.9347,,,,,,,,,,,,,,,,,,,,,,,,,,,
,,110723,052,1,2024-03-05_20h35.29.508,Memory and Syntax,2023.2.3,Linux x86_64,59.52380952,,,,,154.8474,156.8433,n,0,156.8434,156.8436,,0,,,156.8437,156.8443,,156.8443,156.8444,,0,44,44,44,1,cvmt/test_items/t45.jpeg,o,0.8352,,,,,,,,,,,,,,,,,,,,,,,,,,,
,,110723,052,1,2024-03-05_20h35.29.508,Memory and Syntax,2023.2.3,Linux x86_64,59.52380952,,,,,156.8448,158.841,o,1,158.841,158.8413,,0,,,158.8414,158.8418,,158.8418,158.8419,,0,45,45,45,1,cvmt/test_items/t46.jpeg,o,0.5869,,,,,,,,,,,,,,,,,,,,,,,,,,,
,,110723,052,1,2024-03-05_20h35.29.508,Memory and Syntax,2023.2.3,Linux x86_64,59.52380952,,,,,158.8423,160.8386,o,1,160.8387,160.8389,,0,,,160.8389,160.8395,,160.8396,160.8397,,0,46,46,46,1,cvmt/test_items/t47.jpeg,o,1.3853,,,,,,,,,,,,,,,,,,,,,,,,,,,
,,110723,052,1,2024-03-05_20h35.29.508,Memory and Syntax,2023.2.3,Linux x86_64,59.52380952,,,,,160.8401,162.8362,o,0,162.8363,162.8366,,0,,,162.8366,162.8371,,162.8371,162.8376,,0,47,47,47,1,cvmt/test_items/t48.jpeg,n,0.765,,,,,,,,,,,,,,,,,,,,,,,,,,,
,,110723,052,1,2024-03-05_20h35.29.508,Memory and Syntax,2023.2.3,Linux x86_64,59.52380952,,,,,162.839,164.8336,o,1,164.8337,164.8339,,0,,,164.834,164.8346,,164.8346,164.8347,,0,48,48,48,1,cvmt/test_items/t49.jpeg,o,0.554,,,,,,,,,,,,,,,,,,,,,,,,,,,
,,110723,052,1,2024-03-05_20h35.29.508,Memory and Syntax,2023.2.3,Linux x86_64,59.52380952,,,,,164.8351,166.8315,o,1,166.8315,166.8317,,0,,,166.8317,166.8323,,166.8323,166.8324,,0,49,49,49,1,cvmt/test_items/t50.jpeg,o,0.8177,,,,,,,,,,,,,,,,,,,,,,,,,,,
,,110723,052,1,2024-03-05_20h35.29.508,Memory and Syntax,2023.2.3,Linux x86_64,59.52380952,,,,,166.8327,168.8288,n,1,168.8288,168.8291,,0,,,168.8291,168.8296,,168.8297,168.8297,,0,50,50,50,1,cvmt/test_items/t51.jpeg,n,1.2597,,,,,,,,,,,,,,,,,,,,,,,,,,,
,,110723,052,1,2024-03-05_20h35.29.508,Memory and Syntax,2023.2.3,Linux x86_64,59.52380952,,,,,168.83,170.8264,o,1,170.8264,170.8266,,0,,,170.8267,170.8272,,170.8273,170.8273,,0,51,51,51,1,cvmt/test_items/t52.jpeg,o,1.0523,,,,,,,,,,,,,,,,,,,,,,,,,,,
,,110723,052,1,2024-03-05_20h35.29.508,Memory and Syntax,2023.2.3,Linux x86_64,59.52380952,,,,,170.8277,172.824,o,1,172.8241,172.8242,,0,,,172.8243,172.8247,,172.8247,172.8248,,0,52,52,52,1,cvmt/test_items/t53.jpeg,o,0.7725,,,,,,,,,,,,,,,,,,,,,,,,,,,
,,110723,052,1,2024-03-05_20h35.29.508,Memory and Syntax,2023.2.3,Linux x86_64,59.52380952,,,,,172.8251,174.8215,o,1,174.8216,174.8219,,0,,,174.8219,174.8224,,174.8224,174.8226,,0,53,53,53,1,cvmt/test_items/t54.jpeg,o,1.0202,,,,,,,,,,,,,,,,,,,,,,,,,,,
,,110723,052,1,2024-03-05_20h35.29.508,Memory and Syntax,2023.2.3,Linux x86_64,59.52380952,,,,,174.8229,176.8192,o,1,176.8192,176.8195,,0,,,176.8196,176.82,,176.82,176.8201,,0,54,54,54,1,cvmt/test_items/t55.jpeg,o,0.838,,,,,,,,,,,,,,,,,,,,,,,,,,,
,,110723,052,1,2024-03-05_20h35.29.508,Memory and Syntax,2023.2.3,Linux x86_64,59.52380952,,,,,176.8205,178.8169,n,0,178.817,178.8173,,0,,,178.8173,178.8178,,178.8179,178.818,,0,55,55,55,1,cvmt/test_items/t56.jpeg,o,1.1723,,,,,,,,,,,,,,,,,,,,,,,,,,,
,,110723,052,1,2024-03-05_20h35.29.508,Memory and Syntax,2023.2.3,Linux x86_64,59.52380952,,,,,178.8184,180.8143,o,1,180.8143,180.8146,,0,,,180.8146,180.8151,,180.8151,180.8152,,0,56,56,56,1,cvmt/test_items/t57.jpeg,o,0.7875,,,,,,,,,,,,,,,,,,,,,,,,,,,
,,110723,052,1,2024-03-05_20h35.29.508,Memory and Syntax,2023.2.3,Linux x86_64,59.52380952,,,,,180.8157,182.812,n,1,182.8121,182.8123,,0,,,182.8123,182.8127,,182.8127,182.8129,,0,57,57,57,1,cvmt/test_items/t58.jpeg,n,1.0189,,,,,,,,,,,,,,,,,,,,,,,,,,,
,,110723,052,1,2024-03-05_20h35.29.508,Memory and Syntax,2023.2.3,Linux x86_64,59.52380952,,,,,182.8131,184.8095,o,0,184.8095,184.8097,,0,,,184.8097,184.8103,,184.8103,184.8104,,0,58,58,58,1,cvmt/test_items/t59.jpeg,n,1.1374,,,,,,,,,,,,,,,,,,,,,,,,,,,
,,110723,052,1,2024-03-05_20h35.29.508,Memory and Syntax,2023.2.3,Linux x86_64,59.52380952,,,,,184.8108,186.808,n,0,186.808,186.8083,,0,,,186.8084,186.8089,,186.8089,186.809,,0,59,59,59,1,cvmt/test_items/t60.jpeg,o,0.6415,,,,,,,,,,,,,,,,,,,,,,,,,,,
,,110723,052,1,2024-03-05_20h35.29.508,Memory and Syntax,2023.2.3,Linux x86_64,59.52380952,,,,,186.8094,188.8049,o,1,188.8049,188.8055,,0,,,188.8055,188.8061,,188.8063,188.8064,,0,60,60,60,1,cvmt/test_items/t61.jpeg,o,0.6443,,,,,,,,,,,,,,,,,,,,,,,,,,,
,,110723,052,1,2024-03-05_20h35.29.508,Memory and Syntax,2023.2.3,Linux x86_64,59.52380952,,,,,188.8068,190.8021,o,1,190.8023,190.8024,,0,,,190.8025,190.803,,190.803,190.8031,,0,61,61,61,1,cvmt/test_items/t62.jpeg,o,0.6361,,,,,,,,,,,,,,,,,,,,,,,,,,,
,,110723,052,1,2024-03-05_20h35.29.508,Memory and Syntax,2023.2.3,Linux x86_64,59.52380952,,,,,190.8035,192.7996,n,0,192.7997,192.7999,,0,,,192.7999,192.8004,,192.8005,192.8006,,0,62,62,62,1,cvmt/test_items/t63.jpeg,o,1.7213,,,,,,,,,,,,,,,,,,,,,,,,,,,
,,110723,052,1,2024-03-05_20h35.29.508,Memory and Syntax,2023.2.3,Linux x86_64,59.52380952,,,,,192.8009,194.7978,o,1,194.7978,194.7981,,0,,,194.7982,194.7987,,194.7987,194.7988,,0,63,63,63,1,cvmt/test_items/t64.jpeg,o,0.8719,,,,,,,,,,,,,,,,,,,,,,,,,,,
,,110723,052,1,2024-03-05_20h35.29.508,Memory and Syntax,2023.2.3,Linux x86_64,59.52380952,,,,,194.7992,196.7953,o,1,196.7954,196.7959,,0,,,196.7959,196.7966,,196.7967,196.7968,,0,64,64,64,1,cvmt/test_items/t65.jpeg,o,0.7571,,,,,,,,,,,,,,,,,,,,,,,,,,,
,,110723,052,1,2024-03-05_20h35.29.508,Memory and Syntax,2023.2.3,Linux x86_64,59.52380952,,,,,196.7972,198.7931,o,1,198.7933,198.7934,,0,,,198.7935,198.794,,198.794,198.7941,,0,65,65,65,1,cvmt/test_items/t66.jpeg,o,0.7212,,,,,,,,,,,,,,,,,,,,,,,,,,,
,,110723,052,1,2024-03-05_20h35.29.508,Memory and Syntax,2023.2.3,Linux x86_64,59.52380952,,,,,198.7945,200.7903,n,1,200.7904,200.7907,,0,,,200.7907,200.7912,,200.7912,200.7914,,0,66,66,66,1,cvmt/test_items/t67.jpeg,n,0.6732,,,,,,,,,,,,,,,,,,,,,,,,,,,
,,110723,052,1,2024-03-05_20h35.29.508,Memory and Syntax,2023.2.3,Linux x86_64,59.52380952,,,,,200.7917,202.7874,n,0,202.7875,202.7877,,0,,,202.7877,202.7883,,202.7883,202.7883,,0,67,67,67,1,cvmt/test_items/t68.jpeg,o,0.7434,,,,,,,,,,,,,,,,,,,,,,,,,,,
,,110723,052,1,2024-03-05_20h35.29.508,Memory and Syntax,2023.2.3,Linux x86_64,59.52380952,,,,,202.7887,204.7854,n,0,204.7854,204.7856,,0,,,204.7857,204.7863,,204.7863,204.7864,,0,68,68,68,1,cvmt/test_items/t69.jpeg,o,1.6073,,,,,,,,,,,,,,,,,,,,,,,,,,,
,,110723,052,1,2024-03-05_20h35.29.508,Memory and Syntax,2023.2.3,Linux x86_64,59.52380952,,,,,204.7868,206.7831,o,1,206.7832,206.7835,,0,,,206.7836,206.7844,,206.7844,206.7846,,0,69,69,69,1,cvmt/test_items/t70.jpeg,o,0.5815,,,,,,,,,,,,,,,,,,,,,,,,,,,
,,110723,052,1,2024-03-05_20h35.29.508,Memory and Syntax,2023.2.3,Linux x86_64,59.52380952,,,,,206.7851,208.7805,o,0,208.7806,208.7808,,0,,,208.7809,208.7815,,208.7815,208.7816,,0,70,70,70,1,cvmt/test_items/t71.jpeg,n,0.6518,,,,,,,,,,,,,,,,,,,,,,,,,,,
,,110723,052,1,2024-03-05_20h35.29.508,Memory and Syntax,2023.2.3,Linux x86_64,59.52380952,,,,,208.7819,210.778,o,1,210.778,210.7783,,0,,,210.7783,210.7792,,210.7792,210.7794,,0,71,71,71,1,cvmt/test_items/t72.jpeg,o,0.5547,,,,,,,,,,,,,,,,,,,,,,,,,,,
,,110723,052,1,2024-03-05_20h35.29.508,Memory and Syntax,2023.2.3,Linux x86_64,59.52380952,,,,,210.7797,212.7756,o,1,212.7756,212.7759,,0,,,212.776,212.7767,,212.7767,212.7768,,0,72,72,72,1,cvmt/test_items/t73.jpeg,o,0.6387,,,,,,,,,,,,,,,,,,,,,,,,,,,
,,110723,052,1,2024-03-05_20h35.29.508,Memory and Syntax,2023.2.3,Linux x86_64,59.52380952,,,,,212.7772,214.7735,o,1,214.7736,214.7738,,0,,,214.7739,214.7744,,214.7744,214.7745,,0,73,73,73,1,cvmt/test_items/t74.jpeg,o,0.6219,,,,,,,,,,,,,,,,,,,,,,,,,,,
,,110723,052,1,2024-03-05_20h35.29.508,Memory and Syntax,2023.2.3,Linux x86_64,59.52380952,,,,,214.775,216.7705,o,1,216.7706,216.7709,,0,,,216.771,216.7716,,216.7716,216.7717,,0,74,74,74,1,cvmt/test_items/t75.jpeg,o,0.8268,,,,,,,,,,,,,,,,,,,,,,,,,,,
,,110723,052,1,2024-03-05_20h35.29.508,Memory and Syntax,2023.2.3,Linux x86_64,59.52380952,,,,,216.7721,218.7684,o,1,218.7685,218.7688,,0,,,218.7688,218.7694,,218.7695,218.7695,,0,75,75,75,1,cvmt/test_items/t76.jpeg,o,0.6389,,,,,,,,,,,,,,,,,,,,,,,,,,,
,,110723,052,1,2024-03-05_20h35.29.508,Memory and Syntax,2023.2.3,Linux x86_64,59.52380952,,,,,218.7699,220.7657,o,1,220.7657,220.766,,0,,,220.766,220.7665,,220.7665,220.7666,,0,76,76,76,1,cvmt/test_items/t77.jpeg,o,0.4947,,,,,,,,,,,,,,,,,,,,,,,,,,,
,,110723,052,1,2024-03-05_20h35.29.508,Memory and Syntax,2023.2.3,Linux x86_64,59.52380952,,,,,220.767,222.7636,o,1,222.7637,222.7641,,0,,,222.7641,222.7647,,222.7648,222.7649,,0,77,77,77,1,cvmt/test_items/t78.jpeg,o,1.2514,,,,,,,,,,,,,,,,,,,,,,,,,,,
,,110723,052,1,2024-03-05_20h35.29.508,Memory and Syntax,2023.2.3,Linux x86_64,59.52380952,,,,,222.7653,224.761,o,1,224.761,224.7613,,0,,,224.7614,224.7618,,224.7619,224.7619,,0,78,78,78,1,cvmt/test_items/t79.jpeg,o,0.7202,,,,,,,,,,,,,,,,,,,,,,,,,,,
,,110723,052,1,2024-03-05_20h35.29.508,Memory and Syntax,2023.2.3,Linux x86_64,59.52380952,,,,,224.7623,226.7588,o,0,226.7588,226.759,,0,,,226.7591,226.7596,,226.7597,226.7598,,0,79,79,79,1,cvmt/test_items/t80.jpeg,n,1.7868,,,,,,,,,,,,,,,,,,,,,,,,,,,
,,110723,052,1,2024-03-05_20h35.29.508,Memory and Syntax,2023.2.3,Linux x86_64,59.52380952,,,,,226.76,228.7563,o,1,228.7564,228.7566,,0,,,228.7567,228.7572,,228.7572,228.7573,,0,80,80,80,1,cvmt/test_items/t81.jpeg,o,0.5687,,,,,,,,,,,,,,,,,,,,,,,,,,,
,,110723,052,1,2024-03-05_20h35.29.508,Memory and Syntax,2023.2.3,Linux x86_64,59.52380952,,,,,228.7576,230.7539,o,1,230.7539,230.7542,,0,,,230.7542,230.7548,,230.7548,230.7549,,0,81,81,81,1,cvmt/test_items/t82.jpeg,o,0.7266,,,,,,,,,,,,,,,,,,,,,,,,,,,
,,110723,052,1,2024-03-05_20h35.29.508,Memory and Syntax,2023.2.3,Linux x86_64,59.52380952,,,,,230.7553,232.7513,o,1,232.7513,232.7517,,0,,,232.7517,232.7522,,232.7522,232.7523,,0,82,82,82,1,cvmt/test_items/t83.jpeg,o,1.0027,,,,,,,,,,,,,,,,,,,,,,,,,,,
,,110723,052,1,2024-03-05_20h35.29.508,Memory and Syntax,2023.2.3,Linux x86_64,59.52380952,,,,,232.7527,234.749,o,1,234.7491,234.7494,,0,,,234.7494,234.7498,,234.7499,234.75,,0,83,83,83,1,cvmt/test_items/t84.jpeg,o,0.8154,,,,,,,,,,,,,,,,,,,,,,,,,,,
,,110723,052,1,2024-03-05_20h35.29.508,Memory and Syntax,2023.2.3,Linux x86_64,59.52380952,,,,,234.7503,236.7466,o,1,236.7467,236.7469,,0,,,236.7469,236.7476,,236.7476,236.7476,,0,84,84,84,1,cvmt/test_items/t85.jpeg,o,1.2359,,,,,,,,,,,,,,,,,,,,,,,,,,,
,,110723,052,1,2024-03-05_20h35.29.508,Memory and Syntax,2023.2.3,Linux x86_64,59.52380952,,,,,236.748,238.7444,o,1,238.7444,238.7446,,0,,,238.7447,238.7453,,238.7453,238.7454,,0,85,85,85,1,cvmt/test_items/t86.jpeg,o,0.6879,,,,,,,,,,,,,,,,,,,,,,,,,,,
,,110723,052,1,2024-03-05_20h35.29.508,Memory and Syntax,2023.2.3,Linux x86_64,59.52380952,,,,,238.7457,240.7418,n,0,240.7419,240.7421,,0,,,240.7422,240.7428,,240.7428,240.7429,,0,86,86,86,1,cvmt/test_items/t87.jpeg,o,0.9294,,,,,,,,,,,,,,,,,,,,,,,,,,,
,,110723,052,1,2024-03-05_20h35.29.508,Memory and Syntax,2023.2.3,Linux x86_64,59.52380952,,,,,240.7433,242.7394,n,1,242.7395,242.7397,,0,,,242.7398,242.7407,,242.7407,242.7408,,0,87,87,87,1,cvmt/test_items/t88.jpeg,n,0.6639,,,,,,,,,,,,,,,,,,,,,,,,,,,
,,110723,052,1,2024-03-05_20h35.29.508,Memory and Syntax,2023.2.3,Linux x86_64,59.52380952,,,,,242.7413,244.7366,o,0,244.7366,244.7369,,0,,,244.7369,244.7373,,244.7373,244.7374,,0,88,88,88,1,cvmt/test_items/t89.jpeg,n,0.6908,,,,,,,,,,,,,,,,,,,,,,,,,,,
,,110723,052,1,2024-03-05_20h35.29.508,Memory and Syntax,2023.2.3,Linux x86_64,59.52380952,,,,,244.7377,246.7343,o,1,246.7343,246.7345,,0,,,246.7346,246.7351,,246.7351,246.7358,,0,89,89,89,1,cvmt/test_items/t90.jpeg,o,0.6759,,,,,,,,,,,,,,,,,,,,,,,,,,,
,,110723,052,1,2024-03-05_20h35.29.508,Memory and Syntax,2023.2.3,Linux x86_64,59.52380952,,,,,246.7362,248.7318,o,1,248.7319,248.732,,0,,,248.7322,248.7325,,248.7326,248.7327,,0,90,90,90,1,cvmt/test_items/t91.jpeg,o,0.739,,,,,,,,,,,,,,,,,,,,,,,,,,,
,,110723,052,1,2024-03-05_20h35.29.508,Memory and Syntax,2023.2.3,Linux x86_64,59.52380952,,,,,248.7329,250.7294,o,1,250.7295,250.7298,,0,,,250.7298,250.7304,,250.7305,250.7305,,0,91,91,91,1,cvmt/test_items/t92.jpeg,o,0.9529,,,,,,,,,,,,,,,,,,,,,,,,,,,
,,110723,052,1,2024-03-05_20h35.29.508,Memory and Syntax,2023.2.3,Linux x86_64,59.52380952,,,,,250.7309,252.7272,o,1,252.7273,252.7275,,0,,,252.7275,252.728,,252.7281,252.7282,,0,92,92,92,1,cvmt/test_items/t93.jpeg,o,0.6648,,,,,,,,,,,,,,,,,,,,,,,,,,,
,,110723,052,1,2024-03-05_20h35.29.508,Memory and Syntax,2023.2.3,Linux x86_64,59.52380952,,,,,252.7285,254.725,n,0,254.725,254.7252,,0,,,254.7253,254.7259,,254.7259,254.7259,,0,93,93,93,1,cvmt/test_items/t94.jpeg,o,0.9771,,,,,,,,,,,,,,,,,,,,,,,,,,,
,,110723,052,1,2024-03-05_20h35.29.508,Memory and Syntax,2023.2.3,Linux x86_64,59.52380952,,,,,254.7263,256.7227,o,1,256.7228,256.7231,,0,,,256.7231,256.7236,,256.7236,256.7238,,0,94,94,94,1,cvmt/test_items/t95.jpeg,o,0.7107,,,,,,,,,,,,,,,,,,,,,,,,,,,
,,110723,052,1,2024-03-05_20h35.29.508,Memory and Syntax,2023.2.3,Linux x86_64,59.52380952,,,,,256.7241,258.7201,o,1,258.7202,258.7204,,0,,,258.7204,258.7209,,258.7209,258.7209,,0,95,95,95,1,cvmt/test_items/t96.jpeg,o,0.7381,,,,,,,,,,,,,,,,,,,,,,,,,,,
,,110723,052,1,2024-03-05_20h35.29.508,Memory and Syntax,2023.2.3,Linux x86_64,59.52380952,,,,,258.7213,260.7184,o,1,260.7184,260.7187,,0,,,260.7187,260.7194,,260.7194,260.7195,,0,96,96,96,1,cvmt/test_items/t97.jpeg,o,0.8896,,,,,,,,,,,,,,,,,,,,,,,,,,,
,,110723,052,1,2024-03-05_20h35.29.508,Memory and Syntax,2023.2.3,Linux x86_64,59.52380952,,,,,260.7197,262.7149,n,1,262.7149,262.7152,,0,,,262.7152,262.7157,,262.7157,262.7158,,0,97,97,97,1,cvmt/test_items/t98.jpeg,n,1.153,,,,,,,,,,,,,,,,,,,,,,,,,,,
,,110723,052,1,2024-03-05_20h35.29.508,Memory and Syntax,2023.2.3,Linux x86_64,59.52380952,,,,,262.7161,264.7126,,0,264.7127,264.779,n,0,0.0557,,264.779,264.7796,,264.7796,264.7797,,0,98,98,98,1,cvmt/test_items/t99.jpeg,o,,,,,,,,,,,,,,,,,,,,,,,,,,,,
,,110723,052,1,2024-03-05_20h35.29.508,Memory and Syntax,2023.2.3,Linux x86_64,59.52380952,,,,,264.78,266.7767,,0,266.7767,269.0633,o,1,2.2734,,269.0634,269.0738,,269.0739,269.074,,0,99,99,99,1,cvmt/test_items/t100.jpeg,o,,,,,,,,,,,,,,,,,,,,,,,,,,,,
,,110723,052,1,2024-03-05_20h35.29.508,Memory and Syntax,2023.2.3,Linux x86_64,59.52380952,,,,,269.0745,271.0713,,0,271.0714,271.471,o,1,0.3828,,271.471,271.4816,,271.4817,271.4818,,0,100,100,100,1,cvmt/test_items/t101.jpeg,o,,,,,,,,,,,,,,,,,,,,,,,,,,,,
,,110723,052,1,2024-03-05_20h35.29.508,Memory and Syntax,2023.2.3,Linux x86_64,59.52380952,,,,,271.4822,273.4854,o,1,273.4855,273.4874,,0,,,273.4874,273.4879,,273.4879,273.4881,,0,101,101,101,1,cvmt/test_items/t102.jpeg,o,1.0279,,,,,,,,,,,,,,,,,,,,,,,,,,,
,,110723,052,1,2024-03-05_20h35.29.508,Memory and Syntax,2023.2.3,Linux x86_64,59.52380952,,,,,273.4885,275.4833,n,0,275.4833,276.3651,n,0,0.8626,,276.3652,276.3658,,276.3659,276.366,,0,102,102,102,1,cvmt/test_items/t103.jpeg,o,0.907,,,,,,,,,,,,,,,,,,,,,,,,,,,
,,110723,052,1,2024-03-05_20h35.29.508,Memory and Syntax,2023.2.3,Linux x86_64,59.52380952,,,,,276.3663,278.3635,o,1,278.3635,278.3638,,0,,,278.3638,278.3644,,278.3645,278.3645,,0,103,103,103,1,cvmt/test_items/t104.jpeg,o,0.769,,,,,,,,,,,,,,,,,,,,,,,,,,,
,,110723,052,1,2024-03-05_20h35.29.508,Memory and Syntax,2023.2.3,Linux x86_64,59.52380952,,,,,278.3652,280.3602,o,0,280.3602,280.3606,,0,,,280.3606,280.3614,,280.3614,280.3615,,0,104,104,104,1,cvmt/test_items/t105.jpeg,n,0.8898,,,,,,,,,,,,,,,,,,,,,,,,,,,
,,110723,052,1,2024-03-05_20h35.29.508,Memory and Syntax,2023.2.3,Linux x86_64,59.52380952,,,,,280.3619,282.3609,o,1,282.361,282.3613,,0,,,282.3613,282.3617,,282.3617,282.3619,,0,105,105,105,1,cvmt/test_items/t106.jpeg,o,0.6501,,,,,,,,,,,,,,,,,,,,,,,,,,,
,,110723,052,1,2024-03-05_20h35.29.508,Memory and Syntax,2023.2.3,Linux x86_64,59.52380952,,,,,282.3622,284.3559,o,1,284.356,284.3561,,0,,,284.3562,284.3566,,284.3566,284.3567,,0,106,106,106,1,cvmt/test_items/t107.jpeg,o,0.5585,,,,,,,,,,,,,,,,,,,,,,,,,,,
,,110723,052,1,2024-03-05_20h35.29.508,Memory and Syntax,2023.2.3,Linux x86_64,59.52380952,,,,,284.3571,286.3532,o,1,286.3532,286.3535,,0,,,286.3536,286.3541,,286.3542,286.3543,,0,107,107,107,1,cvmt/test_items/t108.jpeg,o,1.1675,,,,,,,,,,,,,,,,,,,,,,,,,,,
,,110723,052,1,2024-03-05_20h35.29.508,Memory and Syntax,2023.2.3,Linux x86_64,59.52380952,,,,,286.3547,288.3508,o,1,288.3508,288.3511,,0,,,288.3512,288.3517,,288.3517,288.3518,,0,108,108,108,1,cvmt/test_items/t109.jpeg,o,1.464,,,,,,,,,,,,,,,,,,,,,,,,,,,
,,110723,052,1,2024-03-05_20h35.29.508,Memory and Syntax,2023.2.3,Linux x86_64,59.52380952,,,,,288.3521,290.3484,n,0,290.3484,290.3487,,0,,,290.3487,290.3492,,290.3492,290.3493,,0,109,109,109,1,cvmt/test_items/t110.jpeg,o,1.8671,,,,,,,,,,,,,,,,,,,,,,,,,,,
,,110723,052,1,2024-03-05_20h35.29.508,Memory and Syntax,2023.2.3,Linux x86_64,59.52380952,,,,,290.3497,292.3459,o,1,292.3459,292.3463,,0,,,292.3463,292.3471,,292.3471,292.3472,,0,110,110,110,1,cvmt/test_items/t111.jpeg,o,1.0393,,,,,,,,,,,,,,,,,,,,,,,,,,,
,,110723,052,1,2024-03-05_20h35.29.508,Memory and Syntax,2023.2.3,Linux x86_64,59.52380952,,,,,292.3475,294.3432,o,1,294.3432,294.3435,,0,,,294.3435,294.344,,294.344,294.3441,,0,111,111,111,1,cvmt/test_items/t112.jpeg,o,0.6429,,,,,,,,,,,,,,,,,,,,,,,,,,,
,,110723,052,1,2024-03-05_20h35.29.508,Memory and Syntax,2023.2.3,Linux x86_64,59.52380952,,,,,294.3446,296.3409,n,1,296.3409,296.3412,,0,,,296.3412,296.3423,,296.3423,296.3424,,0,112,112,112,1,cvmt/test_items/t113.jpeg,n,0.6898,,,,,,,,,,,,,,,,,,,,,,,,,,,
,,110723,052,1,2024-03-05_20h35.29.508,Memory and Syntax,2023.2.3,Linux x86_64,59.52380952,,,,,296.3428,298.3386,n,0,298.3386,298.3389,,0,,,298.3389,298.3394,,298.3394,298.3395,,0,113,113,113,1,cvmt/test_items/t114.jpeg,o,0.9809,,,,,,,,,,,,,,,,,,,,,,,,,,,
,,110723,052,1,2024-03-05_20h35.29.508,Memory and Syntax,2023.2.3,Linux x86_64,59.52380952,,,,,298.3396,300.3361,o,1,300.3361,300.3363,,0,,,300.3364,300.337,,300.337,300.3371,,0,114,114,114,1,cvmt/test_items/t115.jpeg,o,0.5581,,,,,,,,,,,,,,,,,,,,,,,,,,,
,,110723,052,1,2024-03-05_20h35.29.508,Memory and Syntax,2023.2.3,Linux x86_64,59.52380952,,,,,300.3375,302.334,n,0,302.334,302.3343,,0,,,302.3345,302.336,,302.3361,302.3368,,0,115,115,115,1,cvmt/test_items/t116.jpeg,o,1.2799,,,,,,,,,,,,,,,,,,,,,,,,,,,
,,110723,052,1,2024-03-05_20h35.29.508,Memory and Syntax,2023.2.3,Linux x86_64,59.52380952,,,,,302.3376,304.331,o,1,304.3311,304.3313,,0,,,304.3313,304.3322,,304.3322,304.3323,,0,116,116,116,1,cvmt/test_items/t117.jpeg,o,0.6853,,,,,,,,,,,,,,,,,,,,,,,,,,,
,,110723,052,1,2024-03-05_20h35.29.508,Memory and Syntax,2023.2.3,Linux x86_64,59.52380952,,,,,304.3327,306.3288,o,1,306.3288,306.329,,0,,,306.329,306.3296,,306.3297,306.3298,,0,117,117,117,1,cvmt/test_items/t118.jpeg,o,0.7138,,,,,,,,,,,,,,,,,,,,,,,,,,,
,,110723,052,1,2024-03-05_20h35.29.508,Memory and Syntax,2023.2.3,Linux x86_64,59.52380952,,,,,306.3301,308.3269,o,1,308.327,308.3272,,0,,,308.3272,308.3278,,308.3278,308.3278,,0,118,118,118,1,cvmt/test_items/t119.jpeg,o,0.5879,,,,,,,,,,,,,,,,,,,,,,,,,,,
,,110723,052,1,2024-03-05_20h35.29.508,Memory and Syntax,2023.2.3,Linux x86_64,59.52380952,,,,,308.3283,310.3241,o,1,310.3241,310.3246,,0,,,310.3246,310.3251,,310.3252,310.3252,,0,119,119,119,1,cvmt/test_items/t120.jpeg,o,0.6246,,,,,,,,,,,,,,,,,,,,,,,,,,,
,,110723,052,1,2024-03-05_20h35.29.508,Memory and Syntax,2023.2.3,Linux x86_64,59.52380952,,,,,310.3256,312.3226,o,1,312.3227,312.3229,,0,,,312.3229,312.3234,,312.3234,312.3235,,0,120,120,120,1,cvmt/test_items/t121.jpeg,o,1.8085,,,,,,,,,,,,,,,,,,,,,,,,,,,
,,110723,052,1,2024-03-05_20h35.29.508,Memory and Syntax,2023.2.3,Linux x86_64,59.52380952,,,,,312.3238,314.319,o,1,314.319,314.3193,,0,,,314.3194,314.3198,,314.3199,314.32,,0,121,121,121,1,cvmt/test_items/t122.jpeg,o,0.6866,,,,,,,,,,,,,,,,,,,,,,,,,,,
,,110723,052,1,2024-03-05_20h35.29.508,Memory and Syntax,2023.2.3,Linux x86_64,59.52380952,,,,,314.3204,316.3168,o,0,316.3168,316.3171,,0,,,316.3171,316.3176,,316.3176,316.3182,,0,122,122,122,1,cvmt/test_items/t123.jpeg,n,1.4022,,,,,,,,,,,,,,,,,,,,,,,,,,,
,,110723,052,1,2024-03-05_20h35.29.508,Memory and Syntax,2023.2.3,Linux x86_64,59.52380952,,,,,316.3186,318.3141,o,1,318.3144,318.3147,,0,,,318.3147,318.3153,,318.3153,318.3154,,0,123,123,123,1,cvmt/test_items/t124.jpeg,o,0.811,,,,,,,,,,,,,,,,,,,,,,,,,,,
,,110723,052,1,2024-03-05_20h35.29.508,Memory and Syntax,2023.2.3,Linux x86_64,59.52380952,,,,,318.3158,320.3117,o,1,320.3117,320.3119,,0,,,320.312,320.3124,,320.3125,320.3125,,0,124,124,124,1,cvmt/test_items/t125.jpeg,o,1.0848,,,,,,,,,,,,,,,,,,,,,,,,,,,
,,110723,052,1,2024-03-05_20h35.29.508,Memory and Syntax,2023.2.3,Linux x86_64,59.52380952,,,,,320.3128,322.3095,o,1,322.3096,322.3098,,0,,,322.3098,322.3107,,322.3107,322.3108,,0,125,125,125,1,cvmt/test_items/t126.jpeg,o,0.8513,,,,,,,,,,,,,,,,,,,,,,,,,,,
,,110723,052,1,2024-03-05_20h35.29.508,Memory and Syntax,2023.2.3,Linux x86_64,59.52380952,,,,,322.3111,324.3072,o,1,324.3073,324.308,,0,,,324.3081,324.3086,,324.3086,324.3087,,0,126,126,126,1,cvmt/test_items/t127.jpeg,o,0.6063,,,,,,,,,,,,,,,,,,,,,,,,,,,
,,110723,052,1,2024-03-05_20h35.29.508,Memory and Syntax,2023.2.3,Linux x86_64,59.52380952,,,,,324.309,326.3047,o,1,326.3047,326.305,,0,,,326.305,326.3055,,326.3055,326.3056,,0,127,127,127,1,cvmt/test_items/t128.jpeg,o,0.6962,,,,,,,,,,,,,,,,,,,,,,,,,,,
,,110723,052,1,2024-03-05_20h35.29.508,Memory and Syntax,2023.2.3,Linux x86_64,59.52380952,,,,,326.3059,328.3019,o,1,328.302,328.3022,,0,,,328.3022,328.3027,,328.3027,328.3028,,0,128,128,128,1,cvmt/test_items/t129.jpeg,o,1.6997,,,,,,,,,,,,,,,,,,,,,,,,,,,
,,110723,052,1,2024-03-05_20h35.29.508,Memory and Syntax,2023.2.3,Linux x86_64,59.52380952,,,,,328.3031,330.2998,o,1,330.2999,330.3006,,0,,,330.3007,330.3013,,330.3013,330.3014,,0,129,129,129,1,cvmt/test_items/t130.jpeg,o,0.6896,,,,,,,,,,,,,,,,,,,,,,,,,,,
,,110723,052,1,2024-03-05_20h35.29.508,Memory and Syntax,2023.2.3,Linux x86_64,59.52380952,,,,,330.3017,332.2974,o,0,332.2975,332.298,,0,,,332.298,332.2986,,332.2986,332.2987,,0,130,130,130,1,cvmt/test_items/t131.jpeg,n,1.5438,,,,,,,,,,,,,,,,,,,,,,,,,,,
,,110723,052,1,2024-03-05_20h35.29.508,Memory and Syntax,2023.2.3,Linux x86_64,59.52380952,,,,,332.299,334.2971,o,1,334.2971,334.2974,,0,,,334.2974,334.298,,334.298,334.2981,,0,131,131,131,1,cvmt/test_items/t132.jpeg,o,0.9973,,,,,,,,,,,,,,,,,,,,,,,,,,,
,,110723,052,1,2024-03-05_20h35.29.508,Memory and Syntax,2023.2.3,Linux x86_64,59.52380952,,,,,334.2985,336.2926,n,0,336.2927,336.293,,0,,,336.293,336.2935,,336.2936,336.2936,,0,132,132,132,1,cvmt/test_items/t133.jpeg,o,0.6058,,,,,,,,,,,,,,,,,,,,,,,,,,,
,,110723,052,1,2024-03-05_20h35.29.508,Memory and Syntax,2023.2.3,Linux x86_64,59.52380952,,,,,336.294,338.2902,o,1,338.2902,338.2905,,0,,,338.2905,338.291,,338.291,338.2911,,0,133,133,133,1,cvmt/test_items/t134.jpeg,o,0.647,,,,,,,,,,,,,,,,,,,,,,,,,,,
,,110723,052,1,2024-03-05_20h35.29.508,Memory and Syntax,2023.2.3,Linux x86_64,59.52380952,,,,,338.2913,340.2875,o,1,340.2875,340.2878,,0,,,340.2878,340.2887,,340.2887,340.2888,,0,134,134,134,1,cvmt/test_items/t135.jpeg,o,0.5213,,,,,,,,,,,,,,,,,,,,,,,,,,,
,,110723,052,1,2024-03-05_20h35.29.508,Memory and Syntax,2023.2.3,Linux x86_64,59.52380952,,,,,,,,,,,,,,,,,,,,,,,,,,,,,,,,,,340.2894,340.2897,0.0003,340.3042,346.3154,space,5.1389,,346.3316,354.9053,3.8,8.5643,0,0,0,0,1,1,1,WOV,8B,Practiced the virtuoso many pieces.
,,110723,052,1,2024-03-05_20h35.29.508,Memory and Syntax,2023.2.3,Linux x86_64,59.52380952,,,,,,,,,,,,,,,,,,,,,,,,,,,,,,,,,,,,,,,,,,354.906,358.6489,6.8,3.7398,0,1,1,1,1,1,2,AS,6A,The rickety old boat sank.
,,110723,052,1,2024-03-05_20h35.29.508,Memory and Syntax,2023.2.3,Linux x86_64,59.52380952,,,,,,,,,,,,,,,,,,,,,,,,,,,,,,,,,,,,,,,,,,358.6493,361.8282,6.7,3.1665,0,2,2,2,1,1,3,WO,6A,The waiter set the table promptly.
,,110723,052,1,2024-03-05_20h35.29.508,Memory and Syntax,2023.2.3,Linux x86_64,59.52380952,,,,,,,,,,,,,,,,,,,,,,,,,,,,,,,,,,,,,,,,,,361.8287,366.0573,3.7,4.216,0,3,3,3,1,1,4,control,12B,They anticipate that everybody you do will contact Megan.
,,110723,052,1,2024-03-05_20h35.29.508,Memory and Syntax,2023.2.3,Linux x86_64,59.52380952,,,,,,,,,,,,,,,,,,,,,,,,,,,,,,,,,,,,,,,,,,366.0585,368.9694,6.8,2.9045,0,4,4,4,1,1,5,ASV,11B,The cat moved himself away.
,,110723,052,1,2024-03-05_20h35.29.508,Memory and Syntax,2023.2.3,Linux x86_64,59.52380952,,,,,,,,,,,,,,,,,,,,,,,,,,,,,,,,,,,,,,,,,,368.9702,371.4995,1.4,2.5198,0,5,5,5,1,1,6,ASV,7B,She laughed herself at the dog.
,,110723,052,1,2024-03-05_20h35.29.508,Memory and Syntax,2023.2.3,Linux x86_64,59.52380952,,,,,,,,,,,,,,,,,,,,,,,,,,,,,,,,,,,,,,,,,,371.5,374.3462,2.2,2.8375,0,6,6,6,1,1,7,AS,5A,The professor cried about the article.
,,110723,052,1,2024-03-05_20h35.29.508,Memory and Syntax,2023.2.3,Linux x86_64,59.52380952,,,,,,,,,,,,,,,,,,,,,,,,,,,,,,,,,,,,,,,,,,374.3467,377.1761,6.9,2.8234,0,7,7,7,1,1,8,WO,5A,My sibling expected a good grade.
,,110723,052,1,2024-03-05_20h35.29.508,Memory and Syntax,2023.2.3,Linux x86_64,59.52380952,,,,,,,,,,,,,,,,,,,,,,,,,,,,,,,,,,,,,,,,,,377.1765,380.8886,4.8,3.7045,0,8,8,8,1,1,9,filler,1A,There has been a man considered violent.
,,110723,052,1,2024-03-05_20h35.29.508,Memory and Syntax,2023.2.3,Linux x86_64,59.52380952,,,,,,,,,,,,,,,,,,,,,,,,,,,,,,,,,,,,,,,,,,380.8891,383.5517,5,2.6524,0,9,9,9,1,1,10,AS,2A,Taylor subscribed to the channel.
,,110723,052,1,2024-03-05_20h35.29.508,Memory and Syntax,2023.2.3,Linux x86_64,59.52380952,,,,,,,,,,,,,,,,,,,,,,,,,,,,,,,,,,,,,,,,,,383.5521,386.5648,2.9,3.0024,0,10,10,10,1,1,11,control,10B,There might fossils seem to be several miles underground.
,,110723,052,1,2024-03-05_20h35.29.508,Memory and Syntax,2023.2.3,Linux x86_64,59.52380952,,,,,,,,,,,,,,,,,,,,,,,,,,,,,,,,,,,,,,,,,,386.5653,389.7284,2.5,3.1504,0,11,11,11,1,1,12,ASV,8B,Esperanza sighed herself at the desk.
,,110723,052,1,2024-03-05_20h35.29.508,Memory and Syntax,2023.2.3,Linux x86_64,59.52380952,,,,,,,,,,,,,,,,,,,,,,,,,,,,,,,,,,,,,,,,,,389.7288,392.3584,4,2.6179,0,12,12,12,1,1,13,WOV,9B,Read we five pages each night.
,,110723,052,1,2024-03-05_20h35.29.508,Memory and Syntax,2023.2.3,Linux x86_64,59.52380952,,,,,,,,,,,,,,,,,,,,,,,,,,,,,,,,,,,,,,,,,,392.359,395.4207,4.8,3.0547,0,13,13,13,1,1,14,WOV,7B,Frightened the eerie sound Seth.
,,110723,052,1,2024-03-05_20h35.29.508,Memory and Syntax,2023.2.3,Linux x86_64,59.52380952,,,,,,,,,,,,,,,,,,,,,,,,,,,,,,,,,,,,,,,,,,395.4212,400.431,4.9,5.0015,0,14,14,14,1,1,15,filler,2A,"Arty is sick, and Mark is too."
,,110723,052,1,2024-03-05_20h35.29.508,Memory and Syntax,2023.2.3,Linux x86_64,59.52380952,,,,,,,,,,,,,,,,,,,,,,,,,,,,,,,,,,,,,,,,,,400.4315,404.1933,3.7,3.7503,0,15,15,15,1,1,16,ASV,9B,The prime minister confessed herself to bribery.
,,110723,052,1,2024-03-05_20h35.29.508,Memory and Syntax,2023.2.3,Linux x86_64,59.52380952,,,,,,,,,,,,,,,,,,,,,,,,,,,,,,,,,,,,,,,,,,404.1937,406.9745,6.1,2.7702,0,16,16,16,1,1,17,control,7B,Olivia told Gregory when to exonerate herself.
,,110723,052,1,2024-03-05_20h35.29.508,Memory and Syntax,2023.2.3,Linux x86_64,59.52380952,,,,,,,,,,,,,,,,,,,,,,,,,,,,,,,,,,,,,,,,,,406.9749,409.8532,2,2.8693,0,17,17,17,1,1,18,control,11B,There are likely students to be in the library.
,,110723,052,1,2024-03-05_20h35.29.508,Memory and Syntax,2023.2.3,Linux x86_64,59.52380952,,,,,,,,,,,,,,,,,,,,,,,,,,,,,,,,,,,,,,,,,,409.8536,412.4168,6.9,2.5522,0,18,18,18,1,1,19,filler,5A,I told Mandy who would win the election.
,,110723,052,1,2024-03-05_20h35.29.508,Memory and Syntax,2023.2.3,Linux x86_64,59.52380952,,,,,,,,,,,,,,,,,,,,,,,,,,,,,,,,,,,,,,,,,,412.4172,415.0138,4.8,2.5844,0,19,19,19,1,1,20,control,9B,We consider there three problems.
,,110723,052,1,2024-03-05_20h35.29.508,Memory and Syntax,2023.2.3,Linux x86_64,59.52380952,,,,,,,,,,,,,,,,,,,,,,,,,,,,,,,,,,,,,,,,,,415.0143,417.7274,3.1,2.7012,0,20,20,20,1,1,21,control,8B,She called Victor and yelled at.
,,110723,052,1,2024-03-05_20h35.29.508,Memory and Syntax,2023.2.3,Linux x86_64,59.52380952,,,,,,,,,,,,,,,,,,,,,,,,,,,,,,,,,,,,,,,,,,417.7278,420.2409,6.1,2.5027,0,21,21,21,1,1,22,WO,4A,The bully pushed every student.
,,110723,052,1,2024-03-05_20h35.29.508,Memory and Syntax,2023.2.3,Linux x86_64,59.52380952,,,,,,,,,,,,,,,,,,,,,,,,,,,,,,,,,,,,,,,,,,420.2415,422.921,5.9,2.6704,0,22,22,22,1,1,23,WO,3A,Miguel baked delicious cupcakes.
,,110723,052,1,2024-03-05_20h35.29.508,Memory and Syntax,2023.2.3,Linux x86_64,59.52380952,,,,,,,,,,,,,,,,,,,,,,,,,,,,,,,,,,,,,,,,,,422.9219,425.5176,6,2.5841,0,23,23,23,1,1,24,WO,1A,Abby answered the question.
,,110723,052,1,2024-03-05_20h35.29.508,Memory and Syntax,2023.2.3,Linux x86_64,59.52380952,,,,,,,,,,,,,,,,,,,,,,,,,,,,,,,,,,,,,,,,,,425.518,431.4275,5.2,5.9046,0,24,24,24,1,1,25,filler,3A,Brittany attempted to touch the porcupine.
,,110723,052,1,2024-03-05_20h35.29.508,Memory and Syntax,2023.2.3,Linux x86_64,59.52380952,,,,,,,,,,,,,,,,,,,,,,,,,,,,,,,,,,,,,,,,,,431.4282,434.7895,5.7,3.3502,0,25,25,25,1,1,26,AS,3A,Gracie stayed by the window.
,,110723,052,1,2024-03-05_20h35.29.508,Memory and Syntax,2023.2.3,Linux x86_64,59.52380952,,,,,,,,,,,,,,,,,,,,,,,,,,,,,,,,,,,,,,,,,,434.7899,438.5518,3.4,3.7526,0,26,26,26,1,1,27,WOV,11B,Wrote she her boyfriend a poem.
,,110723,052,1,2024-03-05_20h35.29.508,Memory and Syntax,2023.2.3,Linux x86_64,59.52380952,,,,,,,,,,,,,,,,,,,,,,,,,,,,,,,,,,,,,,,,,,438.5524,443.8295,2.7,5.2725,0,27,27,27,1,1,28,WOV,12B,Watched Lily a movie.
,,110723,052,1,2024-03-05_20h35.29.508,Memory and Syntax,2023.2.3,Linux x86_64,59.52380952,,,,,,,,,,,,,,,,,,,,,,,,,,,,,,,,,,,,,,,,,,443.8299,448.6061,4.9,4.7668,0,28,28,28,1,1,29,WO,2A,Jackie won the close race.
,,110723,052,1,2024-03-05_20h35.29.508,Memory and Syntax,2023.2.3,Linux x86_64,59.52380952,,,,,,,,,,,,,,,,,,,,,,,,,,,,,,,,,,,,,,,,,,448.6066,451.4195,6.1,2.8065,0,29,29,29,1,1,30,AS,4A,Tomas drank from the water pitcher.
,,110723,052,1,2024-03-05_20h35.29.508,Memory and Syntax,2023.2.3,Linux x86_64,59.52380952,,,,,,,,,,,,,,,,,,,,,,,,,,,,,,,,,,,,,,,,,,451.42,454.0329,3.1,2.6084,0,30,30,30,1,1,31,WOV,10B,Kissed Kareem his boyfriend.
,,110723,052,1,2024-03-05_20h35.29.508,Memory and Syntax,2023.2.3,Linux x86_64,59.52380952,,,,,,,,,,,,,,,,,,,,,,,,,,,,,,,,,,,,,,,,,,454.0334,457.4289,5.3,3.3904,0,31,31,31,1,1,32,ASV,10B,The children quieted themselves.
,,110723,052,1,2024-03-05_20h35.29.508,Memory and Syntax,2023.2.3,Linux x86_64,59.52380952,,,,,,,,,,,,,,,,,,,,,,,,,,,,,,,,,,,,,,,,,,457.4294,460.0092,5.3,2.5749,0,32,32,32,1,1,33,AS,1A,They fidgeted in their chairs.
,,110723,052,1,2024-03-05_20h35.29.508,Memory and Syntax,2023.2.3,Linux x86_64,59.52380952,,,,,,,,,,,,,,,,,,,,,,,,,,,,,,,,,,,,,,,,,,460.0098,462.7225,5.2,2.7063,0,33,33,33,1,1,34,filler,4A,It seems to him that Kim solved the problem.
,,110723,052,1,2024-03-05_20h35.29.508,Memory and Syntax,2023.2.3,Linux x86_64,59.52380952,,,,,,,,,,,,,,,,,,,,,,,,,,,,,,,,,,,,,,,,,,462.723,465.2361,5.8,2.5092,0,34,34,34,1,1,35,ASV,12B,The swimmers shaved themselves.