load.started,load.stopped,Sona ID,Participant ID,Session,date,expName,psychopyVersion,OS,frameRate,cvmtInstr.started,cvmtInstr.stopped,cvmtTaskInstr.started,cvmtTaskInstr.stopped,presentDesign.started,presentDesign.stopped,cvmt_key_resp.keys,cvmt_key_resp.corr,cvmtNoResp.started,cvmtNoResp.stopped,cvmt_key_resp2.keys,cvmt_key_resp2.corr,cvmt_key_resp2.rt,cvmt_key_resp2.duration,cvmtSampleFB.started,cvmtSampleFB.stopped,key_resp_15.keys,key_resp_15.rt,key_resp_15.duration,cvmtSampleFBFinal.started,cvmtSampleFBFinal.stopped,cvmt_final_samp_fb_key_resp.keys,cvmtTrials.thisRepN,cvmtTrials.thisTrialN,cvmtTrials.thisN,cvmtTrials.thisIndex,cvmtTrials.ran,cvmt_design,old_or_new,cvmt_key_resp.rt,cvmt_key_resp.duration,cvmt_final_samp_fb_key_resp.rt,cvmt_final_samp_fb_key_resp.duration,cvmtDelay.started,cvmtDelay.stopped,cvmt timer,engAJT_instr.started,engAJT_instr.stopped,start_ajt.keys,start_ajt.rt,start_ajt.duration,engAJT.started,engAJT.stopped,acceptability.response,acceptability.rt,engAJT_trials.thisRepN,engAJT_trials.thisTrialN,engAJT_trials.thisN,engAJT_trials.thisIndex,engAJT_trials.ran,ajt_list,list_position,condition,item,testSent
0.0002,0.1901,111083,036,1,2024-03-07_17h28.32.103,Memory and Syntax,2023.2.3,MacIntel,60.24096386,,,,,,,,,,,,,,,,,,,,,,,,,,,,,,,,,,,,,,,,,,,,,,,,,,,,,,,
,,111083,036,1,2024-03-07_17h28.32.103,Memory and Syntax,2023.2.3,MacIntel,60.24096386,0.2313,53.1182,53.1336,55.2546,55.4406,57.2683,,0,57.2696,63.4754,o,0,6.1842,,63.4771,70.1935,c,6.6782,,70.1955,70.2014,,0,0,0,0,1,cvmt/sample/s1.jpg,n,,,,,,,,,,,,,,,,,,,,,,,,,,
,,111083,036,1,2024-03-07_17h28.32.103,Memory and Syntax,2023.2.3,MacIntel,60.24096386,,,,,70.2186,72.213,,0,72.2156,72.6445,o,0,0.4025,,72.646,79.1094,c,6.4373,,79.1115,79.1147,,0,1,1,1,1,cvmt/sample/s2.jpg,n,,,,,,,,,,,,,,,,,,,,,,,,,,
,,111083,036,1,2024-03-07_17h28.32.103,Memory and Syntax,2023.2.3,MacIntel,60.24096386,,,,,79.134,81.1218,,0,81.1235,81.5228,o,1,0.382,,81.5247,81.5315,,,,81.5328,81.5351,,0,2,2,2,1,cvmt/sample/s3.jpg,o,,,,,,,,,,,,,,,,,,,,,,,,,,
,,111083,036,1,2024-03-07_17h28.32.103,Memory and Syntax,2023.2.3,MacIntel,60.24096386,,,,,81.5388,83.5308,n,1,83.5327,83.5359,,0,,,83.5373,83.5405,,,,83.5417,83.5445,,0,3,3,3,1,cvmt/sample/s4.jpg,n,1.8589,,,,,,,,,,,,,,,,,,,,,,,,,
,,111083,036,1,2024-03-07_17h28.32.103,Memory and Syntax,2023.2.3,MacIntel,60.24096386,,,,,83.5485,85.5445,,0,85.5463,85.6765,n,1,0.1129,,85.6779,85.6815,,,,85.6832,85.6862,,0,4,4,4,1,cvmt/sample/s5.jpg,n,,,,,,,,,,,,,,,,,,,,,,,,,,
,,111083,036,1,2024-03-07_17h28.32.103,Memory and Syntax,2023.2.3,MacIntel,60.24096386,,,,,85.6903,87.6891,o,0,87.6907,87.6943,,0,,,87.6956,91.1494,c,3.4296,,91.1514,91.1546,,0,5,5,5,1,cvmt/sample/s6.jpg,n,1.9378,,,,,,,,,,,,,,,,,,,,,,,,,
,,111083,036,1,2024-03-07_17h28.32.103,Memory and Syntax,2023.2.3,MacIntel,60.24096386,,,,,91.1727,93.1584,n,0,93.1602,93.1674,,0,,,93.1706,95.9219,c,2.7212,,95.9239,95.927,,0,6,6,6,1,cvmt/sample/s7.jpg,o,1.4686,,,,,,,,,,,,,,,,,,,,,,,,,
,,111083,036,1,2024-03-07_17h28.32.103,Memory and Syntax,2023.2.3,MacIntel,60.24096386,,,,,95.9316,97.9117,,0,97.9135,98.4008,n,1,0.4575,,98.4023,98.4081,,,,98.4097,98.4128,,0,7,7,7,1,cvmt/sample/s8.jpg,n,,,,,,,,,,,,,,,,,,,,,,,,,,
,,111083,036,1,2024-03-07_17h28.32.103,Memory and Syntax,2023.2.3,MacIntel,60.24096386,,,,,98.4164,100.4184,o,0,100.4201,100.4237,,0,,,100.4252,105.68,c,5.2249,,105.6811,105.6835,,0,8,8,8,1,cvmt/sample/s9.jpg,n,0.9925,,,,,,,,,,,,,,,,,,,,,,,,,
,,111083,036,1,2024-03-07_17h28.32.103,Memory and Syntax,2023.2.3,MacIntel,60.24096386,,,,,105.7013,107.6857,n,1,107.6883,107.696,,0,,,107.6975,107.7026,,,,107.7041,107.7065,,0,9,9,9,1,cvmt/sample/s10.jpg,n,1.5747,,,,,,,,,,,,,,,,,,,,,,,,,
,,111083,036,1,2024-03-07_17h28.32.103,Memory and Syntax,2023.2.3,MacIntel,60.24096386,,,,,107.7107,109.7136,n,0,109.7153,109.7184,,0,,,109.7199,113.1116,c,3.3554,,113.1138,122.2248,r,0,10,10,10,1,cvmt/sample/s11.jpg,o,1.0817,,9.0813,,,,,,,,,,,,,,,,,,,,,,,
,,111083,036,1,2024-03-07_17h28.32.103,Memory and Syntax,2023.2.3,MacIntel,60.24096386,,,,,122.2445,124.2442,n,1,124.2459,124.2553,,0,,,124.2569,124.2616,,,,124.263,124.2668,,1,0,11,0,1,cvmt/sample/s1.jpg,n,0.7777,,,,,,,,,,,,,,,,,,,,,,,,,
,,111083,036,1,2024-03-07_17h28.32.103,Memory and Syntax,2023.2.3,MacIntel,60.24096386,,,,,124.2715,126.2663,o,0,126.2684,126.2717,,0,,,126.2731,129.4633,c,3.1608,,129.4649,129.4685,,1,1,12,1,1,cvmt/sample/s2.jpg,n,1.1769,,,,,,,,,,,,,,,,,,,,,,,,,
,,111083,036,1,2024-03-07_17h28.32.103,Memory and Syntax,2023.2.3,MacIntel,60.24096386,,,,,129.4875,131.4741,n,0,131.4758,131.483,,0,,,131.4845,133.1738,c,1.6639,,133.1758,133.1795,,1,2,13,2,1,cvmt/sample/s3.jpg,o,1.007,,,,,,,,,,,,,,,,,,,,,,,,,
,,111083,036,1,2024-03-07_17h28.32.103,Memory and Syntax,2023.2.3,MacIntel,60.24096386,,,,,133.1852,135.1753,n,1,135.1771,135.1835,,0,,,135.185,135.1911,,,,135.1922,135.1944,,1,3,14,3,1,cvmt/sample/s4.jpg,n,1.5274,,,,,,,,,,,,,,,,,,,,,,,,,
,,111083,036,1,2024-03-07_17h28.32.103,Memory and Syntax,2023.2.3,MacIntel,60.24096386,,,,,135.1981,137.1904,n,1,137.1919,137.195,,0,,,137.1965,137.2,,,,137.2016,137.204,,1,4,15,4,1,cvmt/sample/s5.jpg,n,1.3747,,,,,,,,,,,,,,,,,,,,,,,,,
,,111083,036,1,2024-03-07_17h28.32.103,Memory and Syntax,2023.2.3,MacIntel,60.24096386,,,,,137.2077,139.1946,n,1,139.1963,139.1998,,0,,,139.2014,139.2055,,,,139.207,139.2097,,1,5,16,5,1,cvmt/sample/s6.jpg,n,1.2455,,,,,,,,,,,,,,,,,,,,,,,,,
,,111083,036,1,2024-03-07_17h28.32.103,Memory and Syntax,2023.2.3,MacIntel,60.24096386,,,,,139.2134,141.2168,o,1,141.2186,141.222,,0,,,141.2236,141.2278,,,,141.2293,141.2315,,1,6,17,6,1,cvmt/sample/s7.jpg,o,1.826,,,,,,,,,,,,,,,,,,,,,,,,,
,,111083,036,1,2024-03-07_17h28.32.103,Memory and Syntax,2023.2.3,MacIntel,60.24096386,,,,,141.2363,143.2431,o,0,143.2449,143.2486,,0,,,143.2507,146.1887,c,2.9108,,146.1902,146.1932,,1,7,18,7,1,cvmt/sample/s8.jpg,n,1.1016,,,,,,,,,,,,,,,,,,,,,,,,,
,,111083,036,1,2024-03-07_17h28.32.103,Memory and Syntax,2023.2.3,MacIntel,60.24096386,,,,,146.198,148.1887,n,1,148.1904,148.1979,,0,,,148.1994,148.2034,,,,148.2045,148.207,,1,8,19,8,1,cvmt/sample/s9.jpg,n,1.145,,,,,,,,,,,,,,,,,,,,,,,,,
,,111083,036,1,2024-03-07_17h28.32.103,Memory and Syntax,2023.2.3,MacIntel,60.24096386,,,,,148.2109,150.2134,n,1,150.2152,150.2187,,0,,,150.2204,150.2237,,,,150.2263,150.2289,,1,9,20,9,1,cvmt/sample/s10.jpg,n,1.184,,,,,,,,,,,,,,,,,,,,,,,,,
,,111083,036,1,2024-03-07_17h28.32.103,Memory and Syntax,2023.2.3,MacIntel,60.24096386,,,,,150.2326,152.2385,n,0,152.2402,152.2437,,0,,,152.2454,157.1394,c,4.869,,157.1414,168.0382,r,1,10,21,10,1,cvmt/sample/s11.jpg,o,0.7995,,10.8639,,,,,,,,,,,,,,,,,,,,,,,
,,111083,036,1,2024-03-07_17h28.32.103,Memory and Syntax,2023.2.3,MacIntel,60.24096386,,,,,168.0589,170.0476,o,0,170.0498,170.0558,,0,,,170.0573,172.7169,c,2.6252,,172.7188,172.7235,,2,0,22,0,1,cvmt/sample/s1.jpg,n,0.7995,,,,,,,,,,,,,,,,,,,,,,,,,
,,111083,036,1,2024-03-07_17h28.32.103,Memory and Syntax,2023.2.3,MacIntel,60.24096386,,,,,172.7418,174.727,n,1,174.7287,174.7347,,0,,,174.7365,174.7416,,,,174.7427,174.745,,2,1,23,1,1,cvmt/sample/s2.jpg,n,0.6567,,,,,,,,,,,,,,,,,,,,,,,,,
,,111083,036,1,2024-03-07_17h28.32.103,Memory and Syntax,2023.2.3,MacIntel,60.24096386,,,,,174.7487,176.7426,n,0,176.7444,176.7481,,0,,,176.7501,179.7072,c,2.9313,,179.7096,179.7129,,2,2,24,2,1,cvmt/sample/s3.jpg,o,0.3993,,,,,,,,,,,,,,,,,,,,,,,,,
,,111083,036,1,2024-03-07_17h28.32.103,Memory and Syntax,2023.2.3,MacIntel,60.24096386,,,,,179.7183,181.7096,n,1,181.7114,181.718,,0,,,181.7194,181.7247,,,,181.7258,181.7282,,2,3,25,3,1,cvmt/sample/s4.jpg,n,1.0163,,,,,,,,,,,,,,,,,,,,,,,,,
,,111083,036,1,2024-03-07_17h28.32.103,Memory and Syntax,2023.2.3,MacIntel,60.24096386,,,,,181.7318,183.7256,n,1,183.7275,183.7309,,0,,,183.7323,183.7357,,,,183.7376,183.7406,,2,4,26,4,1,cvmt/sample/s5.jpg,n,0.8141,,,,,,,,,,,,,,,,,,,,,,,,,
,,111083,036,1,2024-03-07_17h28.32.103,Memory and Syntax,2023.2.3,MacIntel,60.24096386,,,,,183.7445,185.7364,o,0,185.7381,185.7413,,0,,,185.7428,188.4106,c,2.6338,,188.4122,188.4155,,2,5,27,5,1,cvmt/sample/s6.jpg,n,1.3997,,,,,,,,,,,,,,,,,,,,,,,,,
,,111083,036,1,2024-03-07_17h28.32.103,Memory and Syntax,2023.2.3,MacIntel,60.24096386,,,,,188.4347,190.4244,,0,190.4261,205.9616,n,0,15.4991,,205.9633,215.4141,c,9.3727,,215.4158,215.4193,,2,6,28,6,1,cvmt/sample/s7.jpg,o,,,,,,,,,,,,,,,,,,,,,,,,,,
,,111083,036,1,2024-03-07_17h28.32.103,Memory and Syntax,2023.2.3,MacIntel,60.24096386,,,,,215.4383,217.4316,n,1,217.4334,217.4406,,0,,,217.4425,217.4474,,,,217.4488,217.4515,,2,7,29,7,1,cvmt/sample/s8.jpg,n,0.9334,,,,,,,,,,,,,,,,,,,,,,,,,
,,111083,036,1,2024-03-07_17h28.32.103,Memory and Syntax,2023.2.3,MacIntel,60.24096386,,,,,217.4562,219.4521,n,1,219.454,219.4582,,0,,,219.46,219.4645,,,,219.466,219.4713,,2,8,30,8,1,cvmt/sample/s9.jpg,n,0.8745,,,,,,,,,,,,,,,,,,,,,,,,,
,,111083,036,1,2024-03-07_17h28.32.103,Memory and Syntax,2023.2.3,MacIntel,60.24096386,,,,,219.4797,221.4845,n,1,221.4864,221.4899,,0,,,221.4914,221.4949,,,,221.4965,221.4997,,2,9,31,9,1,cvmt/sample/s10.jpg,n,0.8609,,,,,,,,,,,,,,,,,,,,,,,,,
,,111083,036,1,2024-03-07_17h28.32.103,Memory and Syntax,2023.2.3,MacIntel,60.24096386,,,,,221.5042,223.5089,n,0,223.511,223.5159,,0,,,223.5175,227.5361,c,3.9992,,227.5388,230.5905,r,2,10,32,10,1,cvmt/sample/s11.jpg,o,0.8278,,3.0204,,,,,,,,,,,,,,,,,,,,,,,
,,111083,036,1,2024-03-07_17h28.32.103,Memory and Syntax,2023.2.3,MacIntel,60.24096386,,,,,230.6174,232.6103,n,1,232.612,232.6201,,0,,,232.6217,232.6271,,,,232.6285,232.6331,,3,0,33,0,1,cvmt/sample/s1.jpg,n,0.8871,,,,,,,,,,,,,,,,,,,,,,,,,
,,111083,036,1,2024-03-07_17h28.32.103,Memory and Syntax,2023.2.3,MacIntel,60.24096386,,,,,232.6385,234.6348,n,1,234.6368,234.6401,,0,,,234.6416,234.6449,,,,234.6472,234.6503,,3,1,34,1,1,cvmt/sample/s2.jpg,n,0.9904,,,,,,,,,,,,,,,,,,,,,,,,,
,,111083,036,1,2024-03-07_17h28.32.103,Memory and Syntax,2023.2.3,MacIntel,60.24096386,,,,,234.6548,236.6473,o,1,236.6487,236.6519,,0,,,236.6534,236.6573,,,,236.6585,236.6612,,3,2,35,2,1,cvmt/sample/s3.jpg,o,0.7549,,,,,,,,,,,,,,,,,,,,,,,,,
,,111083,036,1,2024-03-07_17h28.32.103,Memory and Syntax,2023.2.3,MacIntel,60.24096386,,,,,236.665,238.6579,n,1,238.6598,238.6638,,0,,,238.6653,238.6691,,,,238.6705,238.6736,,3,3,36,3,1,cvmt/sample/s4.jpg,n,0.7979,,,,,,,,,,,,,,,,,,,,,,,,,
,,111083,036,1,2024-03-07_17h28.32.103,Memory and Syntax,2023.2.3,MacIntel,60.24096386,,,,,238.6781,240.67,n,1,240.6717,240.6752,,0,,,240.6767,240.681,,,,240.6825,240.6852,,3,4,37,4,1,cvmt/sample/s5.jpg,n,1.1026,,,,,,,,,,,,,,,,,,,,,,,,,
,,111083,036,1,2024-03-07_17h28.32.103,Memory and Syntax,2023.2.3,MacIntel,60.24096386,,,,,240.6896,242.6946,n,1,242.6965,242.7,,0,,,242.7016,242.7054,,,,242.7073,242.7099,,3,5,38,5,1,cvmt/sample/s6.jpg,n,1.185,,,,,,,,,,,,,,,,,,,,,,,,,
,,111083,036,1,2024-03-07_17h28.32.103,Memory and Syntax,2023.2.3,MacIntel,60.24096386,,,,,242.714,244.7134,o,1,244.7149,244.718,,0,,,244.7196,244.7228,,,,244.7243,244.7274,,3,6,39,6,1,cvmt/sample/s7.jpg,o,0.9975,,,,,,,,,,,,,,,,,,,,,,,,,
,,111083,036,1,2024-03-07_17h28.32.103,Memory and Syntax,2023.2.3,MacIntel,60.24096386,,,,,244.7313,246.7389,o,0,246.7407,246.7437,,0,,,246.7452,250.0978,c,3.3185,,250.0996,250.1026,,3,7,40,7,1,cvmt/sample/s8.jpg,n,0.8517,,,,,,,,,,,,,,,,,,,,,,,,,
,,111083,036,1,2024-03-07_17h28.32.103,Memory and Syntax,2023.2.3,MacIntel,60.24096386,,,,,250.1234,252.1165,o,0,252.1184,252.1256,,0,,,252.1272,255.1966,c,3.0496,,255.1981,255.201,,3,8,41,8,1,cvmt/sample/s9.jpg,n,1.5845,,,,,,,,,,,,,,,,,,,,,,,,,
,,111083,036,1,2024-03-07_17h28.32.103,Memory and Syntax,2023.2.3,MacIntel,60.24096386,,,,,255.2225,257.211,n,1,257.2132,257.2206,,0,,,257.222,257.2265,,,,257.2277,257.2299,,3,9,42,9,1,cvmt/sample/s10.jpg,n,1.0721,,,,,,,,,,,,,,,,,,,,,,,,,
,,111083,036,1,2024-03-07_17h28.32.103,Memory and Syntax,2023.2.3,MacIntel,60.24096386,,,,,257.2339,259.2309,n,0,259.2326,259.2362,,0,,,259.2381,262.6952,c,3.4265,,262.6974,273.9418,c,3,10,43,10,1,cvmt/sample/s11.jpg,o,0.7301,,11.1923,,,,,,,,,,,,,,,,,,,,,,,
,,111083,036,1,2024-03-07_17h28.32.103,Memory and Syntax,2023.2.3,MacIntel,60.24096386,,,273.9465,280.152,280.1928,282.1523,n,1,282.1524,282.1559,,0,,,282.156,282.158,,,,282.158,282.159,,0,0,0,0,1,cvmt/test_items/t1.jpeg,n,1.5149,,,,,,,,,,,,,,,,,,,,,,,,,
,,111083,036,1,2024-03-07_17h28.32.103,Memory and Syntax,2023.2.3,MacIntel,60.24096386,,,,,282.1593,284.1494,n,1,284.1494,284.1497,,0,,,284.1497,284.1501,,,,284.1502,284.1502,,0,1,1,1,1,cvmt/test_items/t2.jpeg,n,0.5692,,,,,,,,,,,,,,,,,,,,,,,,,
,,111083,036,1,2024-03-07_17h28.32.103,Memory and Syntax,2023.2.3,MacIntel,60.24096386,,,,,284.1504,286.143,n,0,286.1431,286.1433,,0,,,286.1433,286.1436,,,,286.1436,286.1437,,0,2,2,2,1,cvmt/test_items/t3.jpeg,o,0.5146,,,,,,,,,,,,,,,,,,,,,,,,,
,,111083,036,1,2024-03-07_17h28.32.103,Memory and Syntax,2023.2.3,MacIntel,60.24096386,,,,,286.1439,288.1353,n,0,288.1354,288.1356,,0,,,288.1357,288.1362,,,,288.1363,288.1364,,0,3,3,3,1,cvmt/test_items/t4.jpeg,o,0.4334,,,,,,,,,,,,,,,,,,,,,,,,,
,,111083,036,1,2024-03-07_17h28.32.103,Memory and Syntax,2023.2.3,MacIntel,60.24096386,,,,,288.1367,290.1276,n,0,290.1276,290.1278,,0,,,290.1278,290.1283,,,,290.1283,290.1284,,0,4,4,4,1,cvmt/test_items/t5.jpeg,o,0.4118,,,,,,,,,,,,,,,,,,,,,,,,,
,,111083,036,1,2024-03-07_17h28.32.103,Memory and Syntax,2023.2.3,MacIntel,60.24096386,,,,,290.1286,292.1266,n,0,292.1267,292.1269,,0,,,292.1271,292.1275,,,,292.1275,292.1276,,0,5,5,5,1,cvmt/test_items/t6.jpeg,o,0.3234,,,,,,,,,,,,,,,,,,,,,,,,,
,,111083,036,1,2024-03-07_17h28.32.103,Memory and Syntax,2023.2.3,MacIntel,60.24096386,,,,,292.1278,294.127,n,0,294.127,294.1274,,0,,,294.1274,294.1278,,,,294.1279,294.128,,0,6,6,6,1,cvmt/test_items/t7.jpeg,o,0.5285,,,,,,,,,,,,,,,,,,,,,,,,,
,,111083,036,1,2024-03-07_17h28.32.103,Memory and Syntax,2023.2.3,MacIntel,60.24096386,,,,,294.1282,296.1233,n,0,296.1234,296.1235,,0,,,296.1236,296.124,,,,296.124,296.124,,0,7,7,7,1,cvmt/test_items/t8.jpeg,o,0.8307,,,,,,,,,,,,,,,,,,,,,,,,,
,,111083,036,1,2024-03-07_17h28.32.103,Memory and Syntax,2023.2.3,MacIntel,60.24096386,,,,,296.1242,298.1312,n,0,298.1313,298.1315,,0,,,298.1315,298.132,,,,298.132,298.132,,0,8,8,8,1,cvmt/test_items/t9.jpeg,o,0.721,,,,,,,,,,,,,,,,,,,,,,,,,
,,111083,036,1,2024-03-07_17h28.32.103,Memory and Syntax,2023.2.3,MacIntel,60.24096386,,,,,298.1323,300.1193,n,0,300.1193,300.1195,,0,,,300.1195,300.12,,,,300.12,300.1201,,0,9,9,9,1,cvmt/test_items/t10.jpeg,o,0.5418,,,,,,,,,,,,,,,,,,,,,,,,,
,,111083,036,1,2024-03-07_17h28.32.103,Memory and Syntax,2023.2.3,MacIntel,60.24096386,,,,,300.1203,302.1152,n,1,302.1152,302.1155,,0,,,302.1155,302.1161,,,,302.1161,302.1161,,0,10,10,10,1,cvmt/test_items/t11.jpeg,n,0.3266,,,,,,,,,,,,,,,,,,,,,,,,,
,,111083,036,1,2024-03-07_17h28.32.103,Memory and Syntax,2023.2.3,MacIntel,60.24096386,,,,,302.1165,304.1123,n,0,304.1123,304.1127,,0,,,304.1127,304.1134,,,,304.1134,304.1135,,0,11,11,11,1,cvmt/test_items/t12.jpeg,o,0.3171,,,,,,,,,,,,,,,,,,,,,,,,,
,,111083,036,1,2024-03-07_17h28.32.103,Memory and Syntax,2023.2.3,MacIntel,60.24096386,,,,,304.1138,306.1103,n,0,306.1103,306.1105,,0,,,306.1105,306.1108,,,,306.1108,306.1109,,0,12,12,12,1,cvmt/test_items/t13.jpeg,o,0.3671,,,,,,,,,,,,,,,,,,,,,,,,,
,,111083,036,1,2024-03-07_17h28.32.103,Memory and Syntax,2023.2.3,MacIntel,60.24096386,,,,,306.1111,308.104,n,0,308.104,308.1042,,0,,,308.1042,308.1045,,,,308.1046,308.1046,,0,13,13,13,1,cvmt/test_items/t14.jpeg,o,0.6216,,,,,,,,,,,,,,,,,,,,,,,,,
,,111083,036,1,2024-03-07_17h28.32.103,Memory and Syntax,2023.2.3,MacIntel,60.24096386,,,,,308.1048,310.1068,o,1,310.1068,310.107,,0,,,310.107,310.1077,,,,310.1077,310.1077,,0,14,14,14,1,cvmt/test_items/t15.jpeg,o,1.1285,,,,,,,,,,,,,,,,,,,,,,,,,
,,111083,036,1,2024-03-07_17h28.32.103,Memory and Syntax,2023.2.3,MacIntel,60.24096386,,,,,310.108,312.0987,n,0,312.0988,312.0991,,0,,,312.0992,312.0998,,,,312.0998,312.0998,,0,15,15,15,1,cvmt/test_items/t16.jpeg,o,0.7175,,,,,,,,,,,,,,,,,,,,,,,,,
,,111083,036,1,2024-03-07_17h28.32.103,Memory and Syntax,2023.2.3,MacIntel,60.24096386,,,,,312.1003,314.0983,n,0,314.0984,314.0986,,0,,,314.0986,314.0989,,,,314.0989,314.099,,0,16,16,16,1,cvmt/test_items/t17.jpeg,o,0.8035,,,,,,,,,,,,,,,,,,,,,,,,,
,,111083,036,1,2024-03-07_17h28.32.103,Memory and Syntax,2023.2.3,MacIntel,60.24096386,,,,,314.0992,316.1076,n,0,316.1077,316.108,,0,,,316.108,316.1086,,,,316.1086,316.1087,,0,17,17,17,1,cvmt/test_items/t18.jpeg,o,0.5848,,,,,,,,,,,,,,,,,,,,,,,,,
,,111083,036,1,2024-03-07_17h28.32.103,Memory and Syntax,2023.2.3,MacIntel,60.24096386,,,,,316.109,318.1052,n,1,318.1053,318.1055,,0,,,318.1055,318.1062,,,,318.1062,318.1063,,0,18,18,18,1,cvmt/test_items/t19.jpeg,n,0.6292,,,,,,,,,,,,,,,,,,,,,,,,,
,,111083,036,1,2024-03-07_17h28.32.103,Memory and Syntax,2023.2.3,MacIntel,60.24096386,,,,,318.1066,320.096,n,0,320.096,320.0962,,0,,,320.0962,320.097,,,,320.097,320.0971,,0,19,19,19,1,cvmt/test_items/t20.jpeg,o,0.976,,,,,,,,,,,,,,,,,,,,,,,,,
,,111083,036,1,2024-03-07_17h28.32.103,Memory and Syntax,2023.2.3,MacIntel,60.24096386,,,,,320.0973,322.1135,n,0,322.1135,322.1137,,0,,,322.1137,322.1144,,,,322.1144,322.1144,,0,20,20,20,1,cvmt/test_items/t21.jpeg,o,0.7138,,,,,,,,,,,,,,,,,,,,,,,,,
,,111083,036,1,2024-03-07_17h28.32.103,Memory and Syntax,2023.2.3,MacIntel,60.24096386,,,,,322.1148,324.113,n,0,324.113,324.1133,,0,,,324.1133,324.1137,,,,324.1137,324.1138,,0,21,21,21,1,cvmt/test_items/t22.jpeg,o,0.6321,,,,,,,,,,,,,,,,,,,,,,,,,
,,111083,036,1,2024-03-07_17h28.32.103,Memory and Syntax,2023.2.3,MacIntel,60.24096386,,,,,324.1141,326.1196,n,1,326.1197,326.1199,,0,,,326.1199,326.1206,,,,326.1206,326.1207,,0,22,22,22,1,cvmt/test_items/t23.jpeg,n,0.6545,,,,,,,,,,,,,,,,,,,,,,,,,
,,111083,036,1,2024-03-07_17h28.32.103,Memory and Syntax,2023.2.3,MacIntel,60.24096386,,,,,326.1209,328.1187,n,1,328.1188,328.119,,0,,,328.119,328.1196,,,,328.1196,328.1196,,0,23,23,23,1,cvmt/test_items/t24.jpeg,n,1.0203,,,,,,,,,,,,,,,,,,,,,,,,,
,,111083,036,1,2024-03-07_17h28.32.103,Memory and Syntax,2023.2.3,MacIntel,60.24096386,,,,,328.1199,330.111,n,0,330.111,330.1114,,0,,,330.1114,330.1119,,,,330.1119,330.112,,0,24,24,24,1,cvmt/test_items/t25.jpeg,o,1.0888,,,,,,,,,,,,,,,,,,,,,,,,,
,,111083,036,1,2024-03-07_17h28.32.103,Memory and Syntax,2023.2.3,MacIntel,60.24096386,,,,,330.1122,332.1144,n,1,332.1144,332.1146,,0,,,332.1146,332.1149,,,,332.1149,332.1149,,0,25,25,25,1,cvmt/test_items/t26.jpeg,n,0.9335,,,,,,,,,,,,,,,,,,,,,,,,,
,,111083,036,1,2024-03-07_17h28.32.103,Memory and Syntax,2023.2.3,MacIntel,60.24096386,,,,,332.1151,334.111,n,0,334.111,334.1113,,0,,,334.1113,334.1121,,,,334.1121,334.1122,,0,26,26,26,1,cvmt/test_items/t27.jpeg,o,0.8839,,,,,,,,,,,,,,,,,,,,,,,,,
,,111083,036,1,2024-03-07_17h28.32.103,Memory and Syntax,2023.2.3,MacIntel,60.24096386,,,,,334.1125,336.1343,n,1,336.1343,336.1344,,0,,,336.1344,336.135,,,,336.135,336.1352,,0,27,27,27,1,cvmt/test_items/t28.jpeg,n,0.6993,,,,,,,,,,,,,,,,,,,,,,,,,
,,111083,036,1,2024-03-07_17h28.32.103,Memory and Syntax,2023.2.3,MacIntel,60.24096386,,,,,336.1354,338.1396,n,1,338.1396,338.1397,,0,,,338.1397,338.1402,,,,338.1402,338.1402,,0,28,28,28,1,cvmt/test_items/t29.jpeg,n,0.9249,,,,,,,,,,,,,,,,,,,,,,,,,
,,111083,036,1,2024-03-07_17h28.32.103,Memory and Syntax,2023.2.3,MacIntel,60.24096386,,,,,338.1404,340.1326,n,0,340.1326,340.1328,,0,,,340.1329,340.1332,,,,340.1332,340.1332,,0,29,29,29,1,cvmt/test_items/t30.jpeg,o,0.5617,,,,,,,,,,,,,,,,,,,,,,,,,
,,111083,036,1,2024-03-07_17h28.32.103,Memory and Syntax,2023.2.3,MacIntel,60.24096386,,,,,340.1334,342.1302,o,1,342.1303,342.1307,,0,,,342.1308,342.1311,,,,342.1311,342.1312,,0,30,30,30,1,cvmt/test_items/t31.jpeg,o,0.8567,,,,,,,,,,,,,,,,,,,,,,,,,
,,111083,036,1,2024-03-07_17h28.32.103,Memory and Syntax,2023.2.3,MacIntel,60.24096386,,,,,342.1316,344.1252,n,1,344.1253,344.1256,,0,,,344.1256,344.1259,,,,344.126,344.1261,,0,31,31,31,1,cvmt/test_items/t32.jpeg,n,0.9987,,,,,,,,,,,,,,,,,,,,,,,,,
,,111083,036,1,2024-03-07_17h28.32.103,Memory and Syntax,2023.2.3,MacIntel,60.24096386,,,,,344.1264,346.1083,n,1,346.1084,346.1086,,0,,,346.1086,346.1101,,,,346.1101,346.1102,,0,32,32,32,1,cvmt/test_items/t33.jpeg,n,0.7835,,,,,,,,,,,,,,,,,,,,,,,,,
,,111083,036,1,2024-03-07_17h28.32.103,Memory and Syntax,2023.2.3,MacIntel,60.24096386,,,,,346.1106,348.1048,n,0,348.1049,348.1051,,0,,,348.1052,348.1057,,,,348.1057,348.1057,,0,33,33,33,1,cvmt/test_items/t34.jpeg,o,1.104,,,,,,,,,,,,,,,,,,,,,,,,,
,,111083,036,1,2024-03-07_17h28.32.103,Memory and Syntax,2023.2.3,MacIntel,60.24096386,,,,,348.1061,350.1069,n,1,350.1069,350.1071,,0,,,350.1071,350.1076,,,,350.1077,350.1077,,0,34,34,34,1,cvmt/test_items/t35.jpeg,n,0.694,,,,,,,,,,,,,,,,,,,,,,,,,
,,111083,036,1,2024-03-07_17h28.32.103,Memory and Syntax,2023.2.3,MacIntel,60.24096386,,,,,350.1079,352.1317,n,0,352.1317,352.1319,,0,,,352.132,352.1326,,,,352.1326,352.1327,,0,35,35,35,1,cvmt/test_items/t36.jpeg,o,0.5207,,,,,,,,,,,,,,,,,,,,,,,,,
,,111083,036,1,2024-03-07_17h28.32.103,Memory and Syntax,2023.2.3,MacIntel,60.24096386,,,,,352.1329,354.1254,n,1,354.1255,354.1257,,0,,,354.1257,354.1264,,,,354.1264,354.1266,,0,36,36,36,1,cvmt/test_items/t37.jpeg,n,0.826,,,,,,,,,,,,,,,,,,,,,,,,,
,,111083,036,1,2024-03-07_17h28.32.103,Memory and Syntax,2023.2.3,MacIntel,60.24096386,,,,,354.127,356.1221,n,0,356.1221,356.1223,,0,,,356.1223,356.1229,,,,356.123,356.1231,,0,37,37,37,1,cvmt/test_items/t38.jpeg,o,0.6772,,,,,,,,,,,,,,,,,,,,,,,,,
,,111083,036,1,2024-03-07_17h28.32.103,Memory and Syntax,2023.2.3,MacIntel,60.24096386,,,,,356.1233,358.1204,n,1,358.1205,358.1207,,0,,,358.1207,358.1211,,,,358.1211,358.1213,,0,38,38,38,1,cvmt/test_items/t39.jpeg,n,0.6285,,,,,,,,,,,,,,,,,,,,,,,,,
,,111083,036,1,2024-03-07_17h28.32.103,Memory and Syntax,2023.2.3,MacIntel,60.24096386,,,,,358.1216,360.1268,n,0,360.1268,360.127,,0,,,360.127,360.1272,,,,360.1272,360.1272,,0,39,39,39,1,cvmt/test_items/t40.jpeg,o,0.4981,,,,,,,,,,,,,,,,,,,,,,,,,
,,111083,036,1,2024-03-07_17h28.32.103,Memory and Syntax,2023.2.3,MacIntel,60.24096386,,,,,360.1274,362.1225,n,1,362.1225,362.1228,,0,,,362.1229,362.1233,,,,362.1233,362.1234,,0,40,40,40,1,cvmt/test_items/t41.jpeg,n,0.6054,,,,,,,,,,,,,,,,,,,,,,,,,
,,111083,036,1,2024-03-07_17h28.32.103,Memory and Syntax,2023.2.3,MacIntel,60.24096386,,,,,362.1237,364.1454,o,1,364.1455,364.1457,,0,,,364.1458,364.1462,,,,364.1462,364.1463,,0,41,41,41,1,cvmt/test_items/t42.jpeg,o,0.8504,,,,,,,,,,,,,,,,,,,,,,,,,
,,111083,036,1,2024-03-07_17h28.32.103,Memory and Syntax,2023.2.3,MacIntel,60.24096386,,,,,364.1465,366.1454,o,1,366.1454,366.1457,,0,,,366.1457,366.1467,,,,366.1468,366.1468,,0,42,42,42,1,cvmt/test_items/t43.jpeg,o,0.6994,,,,,,,,,,,,,,,,,,,,,,,,,
,,111083,036,1,2024-03-07_17h28.32.103,Memory and Syntax,2023.2.3,MacIntel,60.24096386,,,,,366.1471,368.1458,o,0,368.1459,368.1461,,0,,,368.1461,368.1467,,,,368.1467,368.1467,,0,43,43,43,1,cvmt/test_items/t44.jpeg,n,0.8978,,,,,,,,,,,,,,,,,,,,,,,,,
,,111083,036,1,2024-03-07_17h28.32.103,Memory and Syntax,2023.2.3,MacIntel,60.24096386,,,,,368.1469,370.1475,n,0,370.1475,370.1477,,0,,,370.1477,370.148,,,,370.148,370.1481,,0,44,44,44,1,cvmt/test_items/t45.jpeg,o,1.0666,,,,,,,,,,,,,,,,,,,,,,,,,
,,111083,036,1,2024-03-07_17h28.32.103,Memory and Syntax,2023.2.3,MacIntel,60.24096386,,,,,370.1482,372.1485,o,1,372.1486,372.149,,0,,,372.149,372.1496,,,,372.1497,372.1498,,0,45,45,45,1,cvmt/test_items/t46.jpeg,o,0.7796,,,,,,,,,,,,,,,,,,,,,,,,,
,,111083,036,1,2024-03-07_17h28.32.103,Memory and Syntax,2023.2.3,MacIntel,60.24096386,,,,,372.1501,374.1432,n,0,374.1432,374.1434,,0,,,374.1434,374.1439,,,,374.1439,374.144,,0,46,46,46,1,cvmt/test_items/t47.jpeg,o,1.2294,,,,,,,,,,,,,,,,,,,,,,,,,
,,111083,036,1,2024-03-07_17h28.32.103,Memory and Syntax,2023.2.3,MacIntel,60.24096386,,,,,374.1442,376.1344,n,1,376.1346,376.135,,0,,,376.135,376.1357,,,,376.1357,376.1358,,0,47,47,47,1,cvmt/test_items/t48.jpeg,n,0.9067,,,,,,,,,,,,,,,,,,,,,,,,,
,,111083,036,1,2024-03-07_17h28.32.103,Memory and Syntax,2023.2.3,MacIntel,60.24096386,,,,,376.1364,378.1296,n,0,378.1298,378.1298,,0,,,378.1298,378.1303,,,,378.1304,378.1305,,0,48,48,48,1,cvmt/test_items/t49.jpeg,o,0.9128,,,,,,,,,,,,,,,,,,,,,,,,,
,,111083,036,1,2024-03-07_17h28.32.103,Memory and Syntax,2023.2.3,MacIntel,60.24096386,,,,,378.1307,380.1229,o,1,380.123,380.1233,,0,,,380.1233,380.1238,,,,380.1238,380.124,,0,49,49,49,1,cvmt/test_items/t50.jpeg,o,0.981,,,,,,,,,,,,,,,,,,,,,,,,,
,,111083,036,1,2024-03-07_17h28.32.103,Memory and Syntax,2023.2.3,MacIntel,60.24096386,,,,,380.1243,382.1161,n,1,382.1162,382.1165,,0,,,382.1165,382.1169,,,,382.1169,382.1169,,0,50,50,50,1,cvmt/test_items/t51.jpeg,n,0.5946,,,,,,,,,,,,,,,,,,,,,,,,,
,,111083,036,1,2024-03-07_17h28.32.103,Memory and Syntax,2023.2.3,MacIntel,60.24096386,,,,,382.1171,384.1166,o,1,384.1166,384.1169,,0,,,384.1169,384.1174,,,,384.1174,384.1175,,0,51,51,51,1,cvmt/test_items/t52.jpeg,o,1.2001,,,,,,,,,,,,,,,,,,,,,,,,,
,,111083,036,1,2024-03-07_17h28.32.103,Memory and Syntax,2023.2.3,MacIntel,60.24096386,,,,,384.1177,386.1169,n,0,386.1169,386.1172,,0,,,386.1172,386.118,,,,386.118,386.1182,,0,52,52,52,1,cvmt/test_items/t53.jpeg,o,0.6592,,,,,,,,,,,,,,,,,,,,,,,,,
,,111083,036,1,2024-03-07_17h28.32.103,Memory and Syntax,2023.2.3,MacIntel,60.24096386,,,,,386.1184,388.1118,n,0,388.1118,388.112,,0,,,388.1121,388.1126,,,,388.1126,388.1127,,0,53,53,53,1,cvmt/test_items/t54.jpeg,o,1.0584,,,,,,,,,,,,,,,,,,,,,,,,,
,,111083,036,1,2024-03-07_17h28.32.103,Memory and Syntax,2023.2.3,MacIntel,60.24096386,,,,,388.1128,390.1186,n,0,390.1187,390.1189,,0,,,390.1189,390.1194,,,,390.1194,390.1194,,0,54,54,54,1,cvmt/test_items/t55.jpeg,o,1.066,,,,,,,,,,,,,,,,,,,,,,,,,
,,111083,036,1,2024-03-07_17h28.32.103,Memory and Syntax,2023.2.3,MacIntel,60.24096386,,,,,390.1197,392.136,n,0,392.1361,392.1364,,0,,,392.1364,392.1372,,,,392.1372,392.1376,,0,55,55,55,1,cvmt/test_items/t56.jpeg,o,0.5277,,,,,,,,,,,,,,,,,,,,,,,,,
,,111083,036,1,2024-03-07_17h28.32.103,Memory and Syntax,2023.2.3,MacIntel,60.24096386,,,,,392.1381,394.1484,o,1,394.1485,394.1487,,0,,,394.1487,394.1491,,,,394.1491,394.1492,,0,56,56,56,1,cvmt/test_items/t57.jpeg,o,0.9787,,,,,,,,,,,,,,,,,,,,,,,,,
,,111083,036,1,2024-03-07_17h28.32.103,Memory and Syntax,2023.2.3,MacIntel,60.24096386,,,,,394.1494,396.1423,n,1,396.1424,396.1433,,0,,,396.1433,396.1441,,,,396.1442,396.1442,,0,57,57,57,1,cvmt/test_items/t58.jpeg,n,0.7075,,,,,,,,,,,,,,,,,,,,,,,,,
,,111083,036,1,2024-03-07_17h28.32.103,Memory and Syntax,2023.2.3,MacIntel,60.24096386,,,,,396.1446,398.1502,o,0,398.1502,398.1503,,0,,,398.1504,398.1507,,,,398.1508,398.1508,,0,58,58,58,1,cvmt/test_items/t59.jpeg,n,0.8869,,,,,,,,,,,,,,,,,,,,,,,,,
,,111083,036,1,2024-03-07_17h28.32.103,Memory and Syntax,2023.2.3,MacIntel,60.24096386,,,,,398.151,400.1314,o,1,400.1314,400.1318,,0,,,400.1318,400.1323,,,,400.1324,400.1324,,0,59,59,59,1,cvmt/test_items/t60.jpeg,o,0.9383,,,,,,,,,,,,,,,,,,,,,,,,,
,,111083,036,1,2024-03-07_17h28.32.103,Memory and Syntax,2023.2.3,MacIntel,60.24096386,,,,,400.1326,402.1388,o,1,402.1389,402.1391,,0,,,402.1392,402.14,,,,402.14,402.14,,0,60,60,60,1,cvmt/test_items/t61.jpeg,o,0.8541,,,,,,,,,,,,,,,,,,,,,,,,,
,,111083,036,1,2024-03-07_17h28.32.103,Memory and Syntax,2023.2.3,MacIntel,60.24096386,,,,,402.1409,404.1327,n,0,404.1328,404.1331,,0,,,404.1331,404.1336,,,,404.1336,404.1337,,0,61,61,61,1,cvmt/test_items/t62.jpeg,o,0.9202,,,,,,,,,,,,,,,,,,,,,,,,,
,,111083,036,1,2024-03-07_17h28.32.103,Memory and Syntax,2023.2.3,MacIntel,60.24096386,,,,,404.134,406.1362,o,1,406.1362,406.1365,,0,,,406.1366,406.137,,,,406.1371,406.1371,,0,62,62,62,1,cvmt/test_items/t63.jpeg,o,0.5572,,,,,,,,,,,,,,,,,,,,,,,,,
,,111083,036,1,2024-03-07_17h28.32.103,Memory and Syntax,2023.2.3,MacIntel,60.24096386,,,,,406.1373,408.1378,n,0,408.1378,408.138,,0,,,408.1381,408.1387,,,,408.1388,408.1388,,0,63,63,63,1,cvmt/test_items/t64.jpeg,o,0.758,,,,,,,,,,,,,,,,,,,,,,,,,
,,111083,036,1,2024-03-07_17h28.32.103,Memory and Syntax,2023.2.3,MacIntel,60.24096386,,,,,408.1391,410.1281,o,1,410.1282,410.1285,,0,,,410.1285,410.1302,,,,410.1302,410.1304,,0,64,64,64,1,cvmt/test_items/t65.jpeg,o,0.7717,,,,,,,,,,,,,,,,,,,,,,,,,
,,111083,036,1,2024-03-07_17h28.32.103,Memory and Syntax,2023.2.3,MacIntel,60.24096386,,,,,410.1307,412.1232,o,1,412.1233,412.1235,,0,,,412.1236,412.124,,,,412.1241,412.1242,,0,65,65,65,1,cvmt/test_items/t66.jpeg,o,0.8045,,,,,,,,,,,,,,,,,,,,,,,,,
,,111083,036,1,2024-03-07_17h28.32.103,Memory and Syntax,2023.2.3,MacIntel,60.24096386,,,,,412.1245,414.1046,o,0,414.1046,414.1048,,0,,,414.1048,414.1051,,,,414.1051,414.1052,,0,66,66,66,1,cvmt/test_items/t67.jpeg,n,0.5605,,,,,,,,,,,,,,,,,,,,,,,,,
,,111083,036,1,2024-03-07_17h28.32.103,Memory and Syntax,2023.2.3,MacIntel,60.24096386,,,,,414.1054,416.1001,o,1,416.1001,416.1004,,0,,,416.1004,416.1009,,,,416.1009,416.1013,,0,67,67,67,1,cvmt/test_items/t68.jpeg,o,0.792,,,,,,,,,,,,,,,,,,,,,,,,,
,,111083,036,1,2024-03-07_17h28.32.103,Memory and Syntax,2023.2.3,MacIntel,60.24096386,,,,,416.1016,418.0986,n,0,418.0987,418.0988,,0,,,418.0989,418.0993,,,,418.0993,418.0994,,0,68,68,68,1,cvmt/test_items/t69.jpeg,o,0.968,,,,,,,,,,,,,,,,,,,,,,,,,
,,111083,036,1,2024-03-07_17h28.32.103,Memory and Syntax,2023.2.3,MacIntel,60.24096386,,,,,418.0997,420.1037,o,1,420.1038,420.104,,0,,,420.104,420.1047,,,,420.1047,420.1048,,0,69,69,69,1,cvmt/test_items/t70.jpeg,o,0.7035,,,,,,,,,,,,,,,,,,,,,,,,,
,,111083,036,1,2024-03-07_17h28.32.103,Memory and Syntax,2023.2.3,MacIntel,60.24096386,,,,,420.1057,422.1037,n,1,422.1037,422.1039,,0,,,422.1039,422.1044,,,,422.1044,422.1045,,0,70,70,70,1,cvmt/test_items/t71.jpeg,n,0.6169,,,,,,,,,,,,,,,,,,,,,,,,,
,,111083,036,1,2024-03-07_17h28.32.103,Memory and Syntax,2023.2.3,MacIntel,60.24096386,,,,,422.1047,424.1018,n,0,424.1019,424.102,,0,,,424.102,424.103,,,,424.103,424.1031,,0,71,71,71,1,cvmt/test_items/t72.jpeg,o,0.8487,,,,,,,,,,,,,,,,,,,,,,,,,
,,111083,036,1,2024-03-07_17h28.32.103,Memory and Syntax,2023.2.3,MacIntel,60.24096386,,,,,424.1035,426.0927,o,1,426.0928,426.093,,0,,,426.093,426.0937,,,,426.0937,426.0938,,0,72,72,72,1,cvmt/test_items/t73.jpeg,o,0.7837,,,,,,,,,,,,,,,,,,,,,,,,,
,,111083,036,1,2024-03-07_17h28.32.103,Memory and Syntax,2023.2.3,MacIntel,60.24096386,,,,,426.0942,428.0948,n,0,428.0949,428.0952,,0,,,428.0952,428.0956,,,,428.0957,428.0958,,0,73,73,73,1,cvmt/test_items/t74.jpeg,o,0.7144,,,,,,,,,,,,,,,,,,,,,,,,,
,,111083,036,1,2024-03-07_17h28.32.103,Memory and Syntax,2023.2.3,MacIntel,60.24096386,,,,,428.0962,430.0934,n,0,430.0935,430.0935,,0,,,430.0936,430.094,,,,430.094,430.094,,0,74,74,74,1,cvmt/test_items/t75.jpeg,o,0.5396,,,,,,,,,,,,,,,,,,,,,,,,,
,,111083,036,1,2024-03-07_17h28.32.103,Memory and Syntax,2023.2.3,MacIntel,60.24096386,,,,,430.0942,432.0935,o,1,432.0936,432.0941,,0,,,432.0942,432.0948,,,,432.0949,432.0949,,0,75,75,75,1,cvmt/test_items/t76.jpeg,o,0.6663,,,,,,,,,,,,,,,,,,,,,,,,,
,,111083,036,1,2024-03-07_17h28.32.103,Memory and Syntax,2023.2.3,MacIntel,60.24096386,,,,,432.0952,434.0864,o,1,434.0864,434.0866,,0,,,434.0866,434.087,,,,434.087,434.0871,,0,76,76,76,1,cvmt/test_items/t77.jpeg,o,1.0104,,,,,,,,,,,,,,,,,,,,,,,,,
,,111083,036,1,2024-03-07_17h28.32.103,Memory and Syntax,2023.2.3,MacIntel,60.24096386,,,,,434.0874,436.0836,o,1,436.0837,436.0838,,0,,,436.0838,436.0844,,,,436.0844,436.0846,,0,77,77,77,1,cvmt/test_items/t78.jpeg,o,0.7185,,,,,,,,,,,,,,,,,,,,,,,,,
,,111083,036,1,2024-03-07_17h28.32.103,Memory and Syntax,2023.2.3,MacIntel,60.24096386,,,,,436.0848,438.0772,o,1,438.0772,438.0776,,0,,,438.0776,438.078,,,,438.078,438.078,,0,78,78,78,1,cvmt/test_items/t79.jpeg,o,0.8236,,,,,,,,,,,,,,,,,,,,,,,,,
,,111083,036,1,2024-03-07_17h28.32.103,Memory and Syntax,2023.2.3,MacIntel,60.24096386,,,,,438.0782,440.0673,o,0,440.0673,440.0676,,0,,,440.0676,440.0684,,,,440.0684,440.0685,,0,79,79,79,1,cvmt/test_items/t80.jpeg,n,0.5801,,,,,,,,,,,,,,,,,,,,,,,,,
,,111083,036,1,2024-03-07_17h28.32.103,Memory and Syntax,2023.2.3,MacIntel,60.24096386,,,,,440.0688,442.079,o,1,442.079,442.0791,,0,,,442.0791,442.0794,,,,442.0794,442.0795,,0,80,80,80,1,cvmt/test_items/t81.jpeg,o,1.5597,,,,,,,,,,,,,,,,,,,,,,,,,
,,111083,036,1,2024-03-07_17h28.32.103,Memory and Syntax,2023.2.3,MacIntel,60.24096386,,,,,442.0797,444.119,,0,444.119,487.9508,n,0,43.7658,,487.9509,487.9677,,,,487.9678,487.9678,,0,81,81,81,1,cvmt/test_items/t82.jpeg,o,,,,,,,,,,,,,,,,,,,,,,,,,,
,,111083,036,1,2024-03-07_17h28.32.103,Memory and Syntax,2023.2.3,MacIntel,60.24096386,,,,,487.9681,489.9615,o,1,489.9615,489.968,,0,,,489.968,489.9683,,,,489.9684,489.9685,,0,82,82,82,1,cvmt/test_items/t83.jpeg,o,1.8924,,,,,,,,,,,,,,,,,,,,,,,,,
,,111083,036,1,2024-03-07_17h28.32.103,Memory and Syntax,2023.2.3,MacIntel,60.24096386,,,,,489.9687,491.9592,o,1,491.9592,491.9594,,0,,,491.9594,491.9598,,,,491.9598,491.9598,,0,83,83,83,1,cvmt/test_items/t84.jpeg,o,0.6737,,,,,,,,,,,,,,,,,,,,,,,,,
,,111083,036,1,2024-03-07_17h28.32.103,Memory and Syntax,2023.2.3,MacIntel,60.24096386,,,,,491.96,493.9611,n,0,493.9612,493.9613,,0,,,493.9613,493.9616,,,,493.9616,493.9618,,0,84,84,84,1,cvmt/test_items/t85.jpeg,o,0.8335,,,,,,,,,,,,,,,,,,,,,,,,,
,,111083,036,1,2024-03-07_17h28.32.103,Memory and Syntax,2023.2.3,MacIntel,60.24096386,,,,,493.9619,495.9577,o,1,495.9577,495.958,,0,,,495.958,495.9585,,,,495.9585,495.9586,,0,85,85,85,1,cvmt/test_items/t86.jpeg,o,0.5787,,,,,,,,,,,,,,,,,,,,,,,,,
,,111083,036,1,2024-03-07_17h28.32.103,Memory and Syntax,2023.2.3,MacIntel,60.24096386,,,,,495.9589,497.9491,o,1,497.9491,497.9493,,0,,,497.9493,497.9497,,,,497.9497,497.9497,,0,86,86,86,1,cvmt/test_items/t87.jpeg,o,0.6983,,,,,,,,,,,,,,,,,,,,,,,,,
,,111083,036,1,2024-03-07_17h28.32.103,Memory and Syntax,2023.2.3,MacIntel,60.24096386,,,,,497.9499,499.9397,o,0,499.9397,499.9399,,0,,,499.94,499.9402,,,,499.9402,499.9403,,0,87,87,87,1,cvmt/test_items/t88.jpeg,n,0.6978,,,,,,,,,,,,,,,,,,,,,,,,,
,,111083,036,1,2024-03-07_17h28.32.103,Memory and Syntax,2023.2.3,MacIntel,60.24096386,,,,,499.9405,501.9436,o,0,501.9436,501.9437,,0,,,501.9438,501.9442,,,,501.9442,501.9442,,0,88,88,88,1,cvmt/test_items/t89.jpeg,n,0.7835,,,,,,,,,,,,,,,,,,,,,,,,,
,,111083,036,1,2024-03-07_17h28.32.103,Memory and Syntax,2023.2.3,MacIntel,60.24096386,,,,,501.9444,503.9394,o,1,503.9394,503.9396,,0,,,503.9396,503.94,,,,503.94,503.9401,,0,89,89,89,1,cvmt/test_items/t90.jpeg,o,0.8848,,,,,,,,,,,,,,,,,,,,,,,,,
,,111083,036,1,2024-03-07_17h28.32.103,Memory and Syntax,2023.2.3,MacIntel,60.24096386,,,,,503.9403,505.9386,o,1,505.9387,505.9389,,0,,,505.939,505.9396,,,,505.9396,505.9397,,0,90,90,90,1,cvmt/test_items/t91.jpeg,o,1.1456,,,,,,,,,,,,,,,,,,,,,,,,,
,,111083,036,1,2024-03-07_17h28.32.103,Memory and Syntax,2023.2.3,MacIntel,60.24096386,,,,,505.9401,507.9393,o,1,507.9393,507.9395,,0,,,507.9395,507.94,,,,507.9401,507.9402,,0,91,91,91,1,cvmt/test_items/t92.jpeg,o,0.9295,,,,,,,,,,,,,,,,,,,,,,,,,
,,111083,036,1,2024-03-07_17h28.32.103,Memory and Syntax,2023.2.3,MacIntel,60.24096386,,,,,507.9404,509.939,o,1,509.939,509.9392,,0,,,509.9393,509.9398,,,,509.9398,509.9399,,0,92,92,92,1,cvmt/test_items/t93.jpeg,o,0.9705,,,,,,,,,,,,,,,,,,,,,,,,,
,,111083,036,1,2024-03-07_17h28.32.103,Memory and Syntax,2023.2.3,MacIntel,60.24096386,,,,,509.9402,511.9382,n,0,511.9383,511.9385,,0,,,511.9385,511.9389,,,,511.9389,511.9389,,0,93,93,93,1,cvmt/test_items/t94.jpeg,o,0.8603,,,,,,,,,,,,,,,,,,,,,,,,,
,,111083,036,1,2024-03-07_17h28.32.103,Memory and Syntax,2023.2.3,MacIntel,60.24096386,,,,,511.9392,513.9274,o,1,513.9274,513.9276,,0,,,513.9282,513.9286,,,,513.9287,513.9288,,0,94,94,94,1,cvmt/test_items/t95.jpeg,o,0.6515,,,,,,,,,,,,,,,,,,,,,,,,,
,,111083,036,1,2024-03-07_17h28.32.103,Memory and Syntax,2023.2.3,MacIntel,60.24096386,,,,,513.929,515.9267,o,1,515.9268,515.927,,0,,,515.927,515.9279,,,,515.9279,515.9279,,0,95,95,95,1,cvmt/test_items/t96.jpeg,o,0.3506,,,,,,,,,,,,,,,,,,,,,,,,,
,,111083,036,1,2024-03-07_17h28.32.103,Memory and Syntax,2023.2.3,MacIntel,60.24096386,,,,,515.9283,517.9281,o,1,517.9282,517.9284,,0,,,517.9285,517.929,,,,517.929,517.9291,,0,96,96,96,1,cvmt/test_items/t97.jpeg,o,0.7967,,,,,,,,,,,,,,,,,,,,,,,,,
,,111083,036,1,2024-03-07_17h28.32.103,Memory and Syntax,2023.2.3,MacIntel,60.24096386,,,,,517.9294,519.9181,n,1,519.9182,519.9184,,0,,,519.9184,519.919,,,,519.919,519.9191,,0,97,97,97,1,cvmt/test_items/t98.jpeg,n,0.6504,,,,,,,,,,,,,,,,,,,,,,,,,
,,111083,036,1,2024-03-07_17h28.32.103,Memory and Syntax,2023.2.3,MacIntel,60.24096386,,,,,519.9195,521.9107,n,0,521.9107,521.911,,0,,,521.911,521.9118,,,,521.9118,521.9118,,0,98,98,98,1,cvmt/test_items/t99.jpeg,o,0.7819,,,,,,,,,,,,,,,,,,,,,,,,,
,,111083,036,1,2024-03-07_17h28.32.103,Memory and Syntax,2023.2.3,MacIntel,60.24096386,,,,,521.9124,523.9101,o,1,523.9101,523.9103,,0,,,523.9104,523.9108,,,,523.9109,523.9109,,0,99,99,99,1,cvmt/test_items/t100.jpeg,o,0.7107,,,,,,,,,,,,,,,,,,,,,,,,,
,,111083,036,1,2024-03-07_17h28.32.103,Memory and Syntax,2023.2.3,MacIntel,60.24096386,,,,,523.9112,525.9016,o,1,525.9016,525.9018,,0,,,525.9018,525.9028,,,,525.903,525.9031,,0,100,100,100,1,cvmt/test_items/t101.jpeg,o,0.9281,,,,,,,,,,,,,,,,,,,,,,,,,
,,111083,036,1,2024-03-07_17h28.32.103,Memory and Syntax,2023.2.3,MacIntel,60.24096386,,,,,525.9036,527.8991,o,1,527.8992,527.8994,,0,,,527.8994,527.8998,,,,527.8998,527.8999,,0,101,101,101,1,cvmt/test_items/t102.jpeg,o,0.8298,,,,,,,,,,,,,,,,,,,,,,,,,
,,111083,036,1,2024-03-07_17h28.32.103,Memory and Syntax,2023.2.3,MacIntel,60.24096386,,,,,527.9003,529.8992,n,0,529.8992,529.8994,,0,,,529.8996,529.9006,,,,529.9007,529.9008,,0,102,102,102,1,cvmt/test_items/t103.jpeg,o,0.9956,,,,,,,,,,,,,,,,,,,,,,,,,
,,111083,036,1,2024-03-07_17h28.32.103,Memory and Syntax,2023.2.3,MacIntel,60.24096386,,,,,529.9012,531.8992,o,1,531.8993,531.8995,,0,,,531.8995,531.9,,,,531.9,531.9001,,0,103,103,103,1,cvmt/test_items/t104.jpeg,o,0.7332,,,,,,,,,,,,,,,,,,,,,,,,,
,,111083,036,1,2024-03-07_17h28.32.103,Memory and Syntax,2023.2.3,MacIntel,60.24096386,,,,,531.9003,533.9011,n,1,533.9012,533.9015,,0,,,533.9015,533.9031,,,,533.9032,533.9033,,0,104,104,104,1,cvmt/test_items/t105.jpeg,n,0.5547,,,,,,,,,,,,,,,,,,,,,,,,,
,,111083,036,1,2024-03-07_17h28.32.103,Memory and Syntax,2023.2.3,MacIntel,60.24096386,,,,,533.9037,535.9011,n,0,535.9011,535.9013,,0,,,535.9013,535.9016,,,,535.9016,535.9016,,0,105,105,105,1,cvmt/test_items/t106.jpeg,o,0.4182,,,,,,,,,,,,,,,,,,,,,,,,,
,,111083,036,1,2024-03-07_17h28.32.103,Memory and Syntax,2023.2.3,MacIntel,60.24096386,,,,,535.9019,537.899,o,1,537.8991,537.8993,,0,,,537.8993,537.8998,,,,537.8999,537.9001,,0,106,106,106,1,cvmt/test_items/t107.jpeg,o,0.2237,,,,,,,,,,,,,,,,,,,,,,,,,
,,111083,036,1,2024-03-07_17h28.32.103,Memory and Syntax,2023.2.3,MacIntel,60.24096386,,,,,537.9004,539.8885,n,0,539.8886,539.8887,,0,,,539.8888,539.889,,,,539.8891,539.8892,,0,107,107,107,1,cvmt/test_items/t108.jpeg,o,1.0423,,,,,,,,,,,,,,,,,,,,,,,,,
,,111083,036,1,2024-03-07_17h28.32.103,Memory and Syntax,2023.2.3,MacIntel,60.24096386,,,,,539.8895,541.8796,o,1,541.8797,541.8799,,0,,,541.8799,541.8803,,,,541.8803,541.8803,,0,108,108,108,1,cvmt/test_items/t109.jpeg,o,0.8324,,,,,,,,,,,,,,,,,,,,,,,,,
,,111083,036,1,2024-03-07_17h28.32.103,Memory and Syntax,2023.2.3,MacIntel,60.24096386,,,,,541.8806,543.8786,n,0,543.8787,543.8788,,0,,,543.8789,543.8793,,,,543.8793,543.8794,,0,109,109,109,1,cvmt/test_items/t110.jpeg,o,1.0309,,,,,,,,,,,,,,,,,,,,,,,,,
,,111083,036,1,2024-03-07_17h28.32.103,Memory and Syntax,2023.2.3,MacIntel,60.24096386,,,,,543.8796,545.8567,o,1,545.8567,545.857,,0,,,545.8571,545.8579,,,,545.8579,545.8579,,0,110,110,110,1,cvmt/test_items/t111.jpeg,o,1.588,,,,,,,,,,,,,,,,,,,,,,,,,
,,111083,036,1,2024-03-07_17h28.32.103,Memory and Syntax,2023.2.3,MacIntel,60.24096386,,,,,545.8582,547.8485,n,0,547.8485,547.8486,,0,,,547.8487,547.849,,,,547.849,547.8491,,0,111,111,111,1,cvmt/test_items/t112.jpeg,o,0.7617,,,,,,,,,,,,,,,,,,,,,,,,,
,,111083,036,1,2024-03-07_17h28.32.103,Memory and Syntax,2023.2.3,MacIntel,60.24096386,,,,,547.8493,549.8401,n,1,549.8401,549.8404,,0,,,549.8404,549.8414,,,,549.8414,549.8416,,0,112,112,112,1,cvmt/test_items/t113.jpeg,n,0.6173,,,,,,,,,,,,,,,,,,,,,,,,,
,,111083,036,1,2024-03-07_17h28.32.103,Memory and Syntax,2023.2.3,MacIntel,60.24096386,,,,,549.8418,551.8318,o,1,551.8318,551.832,,0,,,551.8321,551.8326,,,,551.8326,551.8327,,0,113,113,113,1,cvmt/test_items/t114.jpeg,o,0.5121,,,,,,,,,,,,,,,,,,,,,,,,,
,,111083,036,1,2024-03-07_17h28.32.103,Memory and Syntax,2023.2.3,MacIntel,60.24096386,,,,,551.833,553.8243,o,1,553.8243,553.8247,,0,,,553.8248,553.8252,,,,553.8252,553.8253,,0,114,114,114,1,cvmt/test_items/t115.jpeg,o,0.6481,,,,,,,,,,,,,,,,,,,,,,,,,
,,111083,036,1,2024-03-07_17h28.32.103,Memory and Syntax,2023.2.3,MacIntel,60.24096386,,,,,553.8256,555.827,o,1,555.827,555.8273,,0,,,555.8273,555.8279,,,,555.8279,555.828,,0,115,115,115,1,cvmt/test_items/t116.jpeg,o,0.8725,,,,,,,,,,,,,,,,,,,,,,,,,
,,111083,036,1,2024-03-07_17h28.32.103,Memory and Syntax,2023.2.3,MacIntel,60.24096386,,,,,555.8283,557.828,n,0,557.828,557.8282,,0,,,557.8283,557.8286,,,,557.8286,557.8287,,0,116,116,116,1,cvmt/test_items/t117.jpeg,o,0.6276,,,,,,,,,,,,,,,,,,,,,,,,,
,,111083,036,1,2024-03-07_17h28.32.103,Memory and Syntax,2023.2.3,MacIntel,60.24096386,,,,,557.8291,559.8269,o,1,559.8269,559.827,,0,,,559.827,559.8274,,,,559.8274,559.8275,,0,117,117,117,1,cvmt/test_items/t118.jpeg,o,0.7984,,,,,,,,,,,,,,,,,,,,,,,,,
,,111083,036,1,2024-03-07_17h28.32.103,Memory and Syntax,2023.2.3,MacIntel,60.24096386,,,,,559.8276,561.8187,o,1,561.8187,561.8189,,0,,,561.819,561.8195,,,,561.8196,561.8196,,0,118,118,118,1,cvmt/test_items/t119.jpeg,o,1.0453,,,,,,,,,,,,,,,,,,,,,,,,,
,,111083,036,1,2024-03-07_17h28.32.103,Memory and Syntax,2023.2.3,MacIntel,60.24096386,,,,,561.8205,563.7962,o,1,563.7962,563.7964,,0,,,563.7964,563.797,,,,563.7971,563.7971,,0,119,119,119,1,cvmt/test_items/t120.jpeg,o,0.7738,,,,,,,,,,,,,,,,,,,,,,,,,
,,111083,036,1,2024-03-07_17h28.32.103,Memory and Syntax,2023.2.3,MacIntel,60.24096386,,,,,563.7974,565.7864,o,1,565.7864,565.787,,0,,,565.787,565.7877,,,,565.7877,565.7878,,0,120,120,120,1,cvmt/test_items/t121.jpeg,o,0.8003,,,,,,,,,,,,,,,,,,,,,,,,,
,,111083,036,1,2024-03-07_17h28.32.103,Memory and Syntax,2023.2.3,MacIntel,60.24096386,,,,,565.7881,567.7804,n,0,567.7805,567.7806,,0,,,567.7806,567.7811,,,,567.7812,567.7812,,0,121,121,121,1,cvmt/test_items/t122.jpeg,o,0.7156,,,,,,,,,,,,,,,,,,,,,,,,,
,,111083,036,1,2024-03-07_17h28.32.103,Memory and Syntax,2023.2.3,MacIntel,60.24096386,,,,,567.7815,569.7702,n,1,569.7702,569.7704,,0,,,569.7705,569.771,,,,569.771,569.7711,,0,122,122,122,1,cvmt/test_items/t123.jpeg,n,0.7765,,,,,,,,,,,,,,,,,,,,,,,,,
,,111083,036,1,2024-03-07_17h28.32.103,Memory and Syntax,2023.2.3,MacIntel,60.24096386,,,,,569.7714,571.7542,n,0,571.7542,571.7543,,0,,,571.7543,571.7552,,,,571.7553,571.7553,,0,123,123,123,1,cvmt/test_items/t124.jpeg,o,0.6974,,,,,,,,,,,,,,,,,,,,,,,,,
,,111083,036,1,2024-03-07_17h28.32.103,Memory and Syntax,2023.2.3,MacIntel,60.24096386,,,,,571.7558,573.7507,o,1,573.7507,573.7509,,0,,,573.7509,573.7513,,,,573.7513,573.7514,,0,124,124,124,1,cvmt/test_items/t125.jpeg,o,0.6668,,,,,,,,,,,,,,,,,,,,,,,,,
,,111083,036,1,2024-03-07_17h28.32.103,Memory and Syntax,2023.2.3,MacIntel,60.24096386,,,,,573.7516,575.7492,n,0,575.7494,575.7496,,0,,,575.7496,575.7508,,,,575.7509,575.7524,,0,125,125,125,1,cvmt/test_items/t126.jpeg,o,0.5681,,,,,,,,,,,,,,,,,,,,,,,,,
,,111083,036,1,2024-03-07_17h28.32.103,Memory and Syntax,2023.2.3,MacIntel,60.24096386,,,,,575.7527,577.7494,o,1,577.7494,577.7496,,0,,,577.7496,577.7504,,,,577.7504,577.7505,,0,126,126,126,1,cvmt/test_items/t127.jpeg,o,0.6059,,,,,,,,,,,,,,,,,,,,,,,,,
,,111083,036,1,2024-03-07_17h28.32.103,Memory and Syntax,2023.2.3,MacIntel,60.24096386,,,,,577.7509,579.7465,n,0,579.7466,579.7468,,0,,,579.7468,579.7472,,,,579.7473,579.7473,,0,127,127,127,1,cvmt/test_items/t128.jpeg,o,0.7562,,,,,,,,,,,,,,,,,,,,,,,,,
,,111083,036,1,2024-03-07_17h28.32.103,Memory and Syntax,2023.2.3,MacIntel,60.24096386,,,,,579.7476,581.7466,n,0,581.7466,581.7469,,0,,,581.7469,581.7475,,,,581.7475,581.7476,,0,128,128,128,1,cvmt/test_items/t129.jpeg,o,0.8274,,,,,,,,,,,,,,,,,,,,,,,,,
,,111083,036,1,2024-03-07_17h28.32.103,Memory and Syntax,2023.2.3,MacIntel,60.24096386,,,,,581.7482,583.7465,o,1,583.7465,583.7467,,0,,,583.7468,583.7474,,,,583.7474,583.7476,,0,129,129,129,1,cvmt/test_items/t130.jpeg,o,1.4765,,,,,,,,,,,,,,,,,,,,,,,,,
,,111083,036,1,2024-03-07_17h28.32.103,Memory and Syntax,2023.2.3,MacIntel,60.24096386,,,,,583.7478,585.7493,n,1,585.7494,585.7496,,0,,,585.7496,585.7501,,,,585.7501,585.7502,,0,130,130,130,1,cvmt/test_items/t131.jpeg,n,1.0658,,,,,,,,,,,,,,,,,,,,,,,,,
,,111083,036,1,2024-03-07_17h28.32.103,Memory and Syntax,2023.2.3,MacIntel,60.24096386,,,,,585.7504,587.7494,o,1,587.7494,587.7497,,0,,,587.7498,587.7511,,,,587.7511,587.7512,,0,131,131,131,1,cvmt/test_items/t132.jpeg,o,0.9878,,,,,,,,,,,,,,,,,,,,,,,,,
,,111083,036,1,2024-03-07_17h28.32.103,Memory and Syntax,2023.2.3,MacIntel,60.24096386,,,,,587.7516,589.7492,n,0,589.7493,589.7494,,0,,,589.7495,589.7499,,,,589.7499,589.75,,0,132,132,132,1,cvmt/test_items/t133.jpeg,o,1.0596,,,,,,,,,,,,,,,,,,,,,,,,,
,,111083,036,1,2024-03-07_17h28.32.103,Memory and Syntax,2023.2.3,MacIntel,60.24096386,,,,,589.7503,591.7552,n,0,591.7553,591.7554,,0,,,591.7554,591.7557,,,,591.7557,591.7558,,0,133,133,133,1,cvmt/test_items/t134.jpeg,o,0.9964,,,,,,,,,,,,,,,,,,,,,,,,,
,,111083,036,1,2024-03-07_17h28.32.103,Memory and Syntax,2023.2.3,MacIntel,60.24096386,,,,,591.756,593.7456,o,1,593.7457,593.7459,,0,,,593.7459,593.7466,,,,593.7466,593.7466,,0,134,134,134,1,cvmt/test_items/t135.jpeg,o,1.5834,,,,,,,,,,,,,,,,,,,,,,,,,
,,111083,036,1,2024-03-07_17h28.32.103,Memory and Syntax,2023.2.3,MacIntel,60.24096386,,,,,,,,,,,,,,,,,,,,,,,,,,,,,,,,,,593.7472,593.7476,0.0004,593.7639,608.1915,space,13.6834,,608.2069,614.0429,2.8,5.8298,0,0,0,0,1,1,1,WOV,8B,Practiced the virtuoso many pieces.
,,111083,036,1,2024-03-07_17h28.32.103,Memory and Syntax,2023.2.3,MacIntel,60.24096386,,,,,,,,,,,,,,,,,,,,,,,,,,,,,,,,,,,,,,,,,,614.0434,616.9353,5.5,2.8891,0,1,1,1,1,1,2,AS,6A,The rickety old boat sank.
,,111083,036,1,2024-03-07_17h28.32.103,Memory and Syntax,2023.2.3,MacIntel,60.24096386,,,,,,,,,,,,,,,,,,,,,,,,,,,,,,,,,,,,,,,,,,616.9358,619.9244,6.5,2.9846,0,2,2,2,1,1,3,WO,6A,The waiter set the table promptly.
,,111083,036,1,2024-03-07_17h28.32.103,Memory and Syntax,2023.2.3,MacIntel,60.24096386,,,,,,,,,,,,,,,,,,,,,,,,,,,,,,,,,,,,,,,,,,619.9254,625.5423,2.4,5.6133,0,3,3,3,1,1,4,control,12B,They anticipate that everybody you do will contact Megan.
,,111083,036,1,2024-03-07_17h28.32.103,Memory and Syntax,2023.2.3,MacIntel,60.24096386,,,,,,,,,,,,,,,,,,,,,,,,,,,,,,,,,,,,,,,,,,625.543,628.2313,2.4,2.6858,0,4,4,4,1,1,5,ASV,11B,The cat moved himself away.
,,111083,036,1,2024-03-07_17h28.32.103,Memory and Syntax,2023.2.3,MacIntel,60.24096386,,,,,,,,,,,,,,,,,,,,,,,,,,,,,,,,,,,,,,,,,,628.2315,631.0414,1.4,2.8083,0,5,5,5,1,1,6,ASV,7B,She laughed herself at the dog.
,,111083,036,1,2024-03-07_17h28.32.103,Memory and Syntax,2023.2.3,MacIntel,60.24096386,,,,,,,,,,,,,,,,,,,,,,,,,,,,,,,,,,,,,,,,,,631.0417,633.7457,6.8,2.7014,0,6,6,6,1,1,7,AS,5A,The professor cried about the article.
,,111083,036,1,2024-03-07_17h28.32.103,Memory and Syntax,2023.2.3,MacIntel,60.24096386,,,,,,,,,,,,,,,,,,,,,,,,,,,,,,,,,,,,,,,,,,633.7459,636.2419,6.6,2.4934,0,7,7,7,1,1,8,WO,5A,My sibling expected a good grade.
,,111083,036,1,2024-03-07_17h28.32.103,Memory and Syntax,2023.2.3,MacIntel,60.24096386,,,,,,,,,,,,,,,,,,,,,,,,,,,,,,,,,,,,,,,,,,636.2436,638.6989,6.5,2.4519,0,8,8,8,1,1,9,filler,1A,There has been a man considered violent.
,,111083,036,1,2024-03-07_17h28.32.103,Memory and Syntax,2023.2.3,MacIntel,60.24096386,,,,,,,,,,,,,,,,,,,,,,,,,,,,,,,,,,,,,,,,,,638.6992,641.1706,6.4,2.4695,0,9,9,9,1,1,10,AS,2A,Taylor subscribed to the channel.
,,111083,036,1,2024-03-07_17h28.32.103,Memory and Syntax,2023.2.3,MacIntel,60.24096386,,,,,,,,,,,,,,,,,,,,,,,,,,,,,,,,,,,,,,,,,,641.1709,644.205,1.9,3.0309,0,10,10,10,1,1,11,control,10B,There might fossils seem to be several miles underground.
,,111083,036,1,2024-03-07_17h28.32.103,Memory and Syntax,2023.2.3,MacIntel,60.24096386,,,,,,,,,,,,,,,,,,,,,,,,,,,,,,,,,,,,,,,,,,644.2061,647.4315,2,3.221,0,11,11,11,1,1,12,ASV,8B,Esperanza sighed herself at the desk.
,,111083,036,1,2024-03-07_17h28.32.103,Memory and Syntax,2023.2.3,MacIntel,60.24096386,,,,,,,,,,,,,,,,,,,,,,,,,,,,,,,,,,,,,,,,,,647.4318,650.5513,1.7,3.1176,0,12,12,12,1,1,13,WOV,9B,Read we five pages each night.
,,111083,036,1,2024-03-07_17h28.32.103,Memory and Syntax,2023.2.3,MacIntel,60.24096386,,,,,,,,,,,,,,,,,,,,,,,,,,,,,,,,,,,,,,,,,,650.5516,653.2814,1.6,2.7264,0,13,13,13,1,1,14,WOV,7B,Frightened the eerie sound Seth.
,,111083,036,1,2024-03-07_17h28.32.103,Memory and Syntax,2023.2.3,MacIntel,60.24096386,,,,,,,,,,,,,,,,,,,,,,,,,,,,,,,,,,,,,,,,,,653.2822,656.2842,6.2,2.9996,0,14,14,14,1,1,15,filler,2A,"Arty is sick, and Mark is too."
,,111083,036,1,2024-03-07_17h28.32.103,Memory and Syntax,2023.2.3,MacIntel,60.24096386,,,,,,,,,,,,,,,,,,,,,,,,,,,,,,,,,,,,,,,,,,656.2845,659.2211,5.8,2.9349,0,15,15,15,1,1,16,ASV,9B,The prime minister confessed herself to bribery.
,,111083,036,1,2024-03-07_17h28.32.103,Memory and Syntax,2023.2.3,MacIntel,60.24096386,,,,,,,,,,,,,,,,,,,,,,,,,,,,,,,,,,,,,,,,,,659.2215,661.9473,5.8,2.7233,0,16,16,16,1,1,17,control,7B,Olivia told Gregory when to exonerate herself.
,,111083,036,1,2024-03-07_17h28.32.103,Memory and Syntax,2023.2.3,MacIntel,60.24096386,,,,,,,,,,,,,,,,,,,,,,,,,,,,,,,,,,,,,,,,,,661.9477,664.915,5.8,2.9651,0,17,17,17,1,1,18,control,11B,There are likely students to be in the library.
,,111083,036,1,2024-03-07_17h28.32.103,Memory and Syntax,2023.2.3,MacIntel,60.24096386,,,,,,,,,,,,,,,,,,,,,,,,,,,,,,,,,,,,,,,,,,664.9153,667.3422,6.1,2.4241,0,18,18,18,1,1,19,filler,5A,I told Mandy who would win the election.
,,111083,036,1,2024-03-07_17h28.32.103,Memory and Syntax,2023.2.3,MacIntel,60.24096386,,,,,,,,,,,,,,,,,,,,,,,,,,,,,,,,,,,,,,,,,,667.3426,670.1177,2,2.7725,0,19,19,19,1,1,20,control,9B,We consider there three problems.
,,111083,036,1,2024-03-07_17h28.32.103,Memory and Syntax,2023.2.3,MacIntel,60.24096386,,,,,,,,,,,,,,,,,,,,,,,,,,,,,,,,,,,,,,,,,,670.118,672.6457,1.8,2.5256,0,20,20,20,1,1,21,control,8B,She called Victor and yelled at.
,,111083,036,1,2024-03-07_17h28.32.103,Memory and Syntax,2023.2.3,MacIntel,60.24096386,,,,,,,,,,,,,,,,,,,,,,,,,,,,,,,,,,,,,,,,,,672.646,675.7102,6.2,3.0607,0,21,21,21,1,1,22,WO,4A,The bully pushed every student.
,,111083,036,1,2024-03-07_17h28.32.103,Memory and Syntax,2023.2.3,MacIntel,60.24096386,,,,,,,,,,,,,,,,,,,,,,,,,,,,,,,,,,,,,,,,,,675.7106,678.1493,6.4,2.436,0,22,22,22,1,1,23,WO,3A,Miguel baked delicious cupcakes.
,,111083,036,1,2024-03-07_17h28.32.103,Memory and Syntax,2023.2.3,MacIntel,60.24096386,,,,,,,,,,,,,,,,,,,,,,,,,,,,,,,,,,,,,,,,,,678.1496,680.6172,6.4,2.4658,0,23,23,23,1,1,24,WO,1A,Abby answered the question.
,,111083,036,1,2024-03-07_17h28.32.103,Memory and Syntax,2023.2.3,MacIntel,60.24096386,,,,,,,,,,,,,,,,,,,,,,,,,,,,,,,,,,,,,,,,,,680.6175,684.9094,5.4,4.2897,0,24,24,24,1,1,25,filler,3A,Brittany attempted to touch the porcupine.
,,111083,036,1,2024-03-07_17h28.32.103,Memory and Syntax,2023.2.3,MacIntel,60.24096386,,,,,,,,,,,,,,,,,,,,,,,,,,,,,,,,,,,,,,,,,,684.9097,687.2992,5.8,2.3872,0,25,25,25,1,1,26,AS,3A,Gracie stayed by the window.
,,111083,036,1,2024-03-07_17h28.32.103,Memory and Syntax,2023.2.3,MacIntel,60.24096386,,,,,,,,,,,,,,,,,,,,,,,,,,,,,,,,,,,,,,,,,,687.2995,690.0071,1.3,2.7057,0,26,26,26,1,1,27,WOV,11B,Wrote she her boyfriend a poem.
,,111083,036,1,2024-03-07_17h28.32.103,Memory and Syntax,2023.2.3,MacIntel,60.24096386,,,,,,,,,,,,,,,,,,,,,,,,,,,,,,,,,,,,,,,,,,690.0072,692.537,1.5,2.5236,0,27,27,27,1,1,28,WOV,12B,Watched Lily a movie.
,,111083,036,1,2024-03-07_17h28.32.103,Memory and Syntax,2023.2.3,MacIntel,60.24096386,,,,,,,,,,,,,,,,,,,,,,,,,,,,,,,,,,,,,,,,,,692.5374,695.0159,6.6,2.4766,0,28,28,28,1,1,29,WO,2A,Jackie won the close race.
,,111083,036,1,2024-03-07_17h28.32.103,Memory and Syntax,2023.2.3,MacIntel,60.24096386,,,,,,,,,,,,,,,,,,,,,,,,,,,,,,,,,,,,,,,,,,695.0163,697.6624,6,2.6403,0,29,29,29,1,1,30,AS,4A,Tomas drank from the water pitcher.
,,111083,036,1,2024-03-07_17h28.32.103,Memory and Syntax,2023.2.3,MacIntel,60.24096386,,,,,,,,,,,,,,,,,,,,,,,,,,,,,,,,,,,,,,,,,,697.6633,700.984,1.6,3.3188,0,30,30,30,1,1,31,WOV,10B,Kissed Kareem his boyfriend.
,,111083,036,1,2024-03-07_17h28.32.103,Memory and Syntax,2023.2.3,MacIntel,60.24096386,,,,,,,,,,,,,,,,,,,,,,,,,,,,,,,,,,,,,,,,,,700.9844,704.5727,5.4,3.585,0,31,31,31,1,1,32,ASV,10B,The children quieted themselves.
,,111083,036,1,2024-03-07_17h28.32.103,Memory and Syntax,2023.2.3,MacIntel,60.24096386,,,,,,,,,,,,,,,,,,,,,,,,,,,,,,,,,,,,,,,,,,704.5732,707.0431,6.1,2.4622,0,32,32,32,1,1,33,AS,1A,They fidgeted in their chairs.
,,111083,036,1,2024-03-07_17h28.32.103,Memory and Syntax,2023.2.3,MacIntel,60.24096386,,,,,,,,,,,,,,,,,,,,,,,,,,,,,,,,,,,,,,,,,,707.0436,710.5207,5.9,3.4749,0,33,33,33,1,1,34,filler,4A,It seems to him that Kim solved the problem.
,,111083,036,1,2024-03-07_17h28.32.103,Memory and Syntax,2023.2.3,MacIntel,60.24096386,,,,,,,,,,,,,,,,,,,,,,,,,,,,,,,,,,,,,,,,,,710.5209,713.0929,6.6,2.57,0,34,34,34,1,1,35,ASV,12B,The swimmers shaved themselves.