load.started,load.stopped,Sona ID,Participant ID,Session,date,expName,psychopyVersion,OS,frameRate,cvmtInstr.started,cvmtInstr.stopped,cvmtTaskInstr.started,cvmtTaskInstr.stopped,presentDesign.started,presentDesign.stopped,cvmt_key_resp.keys,cvmt_key_resp.corr,cvmt_key_resp.rt,cvmt_key_resp.duration,cvmtNoResp.started,cvmtNoResp.stopped,cvmt_key_resp2.keys,cvmt_key_resp2.corr,cvmt_key_resp2.rt,cvmt_key_resp2.duration,cvmtSampleFB.started,cvmtSampleFB.stopped,key_resp_15.keys,cvmtSampleFBFinal.started,cvmtSampleFBFinal.stopped,cvmt_final_samp_fb_key_resp.keys,cvmtTrials.thisRepN,cvmtTrials.thisTrialN,cvmtTrials.thisN,cvmtTrials.thisIndex,cvmtTrials.ran,cvmt_design,old_or_new,key_resp_15.rt,key_resp_15.duration,cvmt_final_samp_fb_key_resp.rt,cvmt_final_samp_fb_key_resp.duration
0.0012,0.0074,113834,119,1,2024-03-05_22h47.56.942,Memory and Syntax,2023.2.3,MacIntel,59.88023952,,,,,,,,,,,,,,,,,,,,,,,,,,,,,,,,,
,,113834,119,1,2024-03-05_22h47.56.942,Memory and Syntax,2023.2.3,MacIntel,59.88023952,0.0226,4.6913,4.6994,5.1711,5.2146,7.1733,n,1,1.3782,,7.1741,8.157,n,1,0.9561,,8.1584,8.1746,,8.1751,8.1766,,0,0,0,0,1,cvmt/sample/s1.jpg,n,,,,
,,113834,119,1,2024-03-05_22h47.56.942,Memory and Syntax,2023.2.3,MacIntel,59.88023952,,,,,8.1784,10.1756,n,1,0.646,,10.1764,10.1809,,0,,,10.1817,10.1834,,10.1841,10.1854,,0,1,1,1,1,cvmt/sample/s2.jpg,n,,,,
,,113834,119,1,2024-03-05_22h47.56.942,Memory and Syntax,2023.2.3,MacIntel,59.88023952,,,,,10.1872,12.1897,n,0,0.6802,,12.1912,12.1932,,0,,,12.194,17.1223,c,17.1234,17.125,,0,2,2,2,1,cvmt/sample/s3.jpg,o,4.9093,,,
,,113834,119,1,2024-03-05_22h47.56.942,Memory and Syntax,2023.2.3,MacIntel,59.88023952,,,,,17.1382,19.1407,n,1,0.9484,,19.142,19.1468,,0,,,19.1477,19.1509,,19.1516,19.153,,0,3,3,3,1,cvmt/sample/s4.jpg,n,,,,
,,113834,119,1,2024-03-05_22h47.56.942,Memory and Syntax,2023.2.3,MacIntel,59.88023952,,,,,19.1554,21.1567,n,1,0.6168,,21.158,21.1604,,0,,,21.1612,21.1632,,21.164,21.1655,,0,4,4,4,1,cvmt/sample/s5.jpg,n,,,,
,,113834,119,1,2024-03-05_22h47.56.942,Memory and Syntax,2023.2.3,MacIntel,59.88023952,,,,,21.1681,23.1586,n,1,0.4177,,23.1596,23.1615,,0,,,23.1623,23.1642,,23.165,23.1667,,0,5,5,5,1,cvmt/sample/s6.jpg,n,,,,
,,113834,119,1,2024-03-05_22h47.56.942,Memory and Syntax,2023.2.3,MacIntel,59.88023952,,,,,23.169,25.1728,n,0,0.3013,,25.1741,25.1761,,0,,,25.1769,26.7568,c,26.7578,26.7594,,0,6,6,6,1,cvmt/sample/s7.jpg,o,1.5623,,,
,,113834,119,1,2024-03-05_22h47.56.942,Memory and Syntax,2023.2.3,MacIntel,59.88023952,,,,,26.7621,28.7549,n,1,1.1532,,28.7554,28.7576,,0,,,28.758,28.7599,,28.7603,28.7612,,0,7,7,7,1,cvmt/sample/s8.jpg,n,,,,
,,113834,119,1,2024-03-05_22h47.56.942,Memory and Syntax,2023.2.3,MacIntel,59.88023952,,,,,28.7626,30.7578,n,1,0.7089,,30.7588,30.7606,,0,,,30.7613,30.7633,,30.764,30.7657,,0,8,8,8,1,cvmt/sample/s9.jpg,n,,,,
,,113834,119,1,2024-03-05_22h47.56.942,Memory and Syntax,2023.2.3,MacIntel,59.88023952,,,,,30.7682,32.7575,n,1,0.2945,,32.7581,32.7593,,0,,,32.7598,32.7612,,32.7618,32.7627,,0,9,9,9,1,cvmt/sample/s10.jpg,n,,,,
,,113834,119,1,2024-03-05_22h47.56.942,Memory and Syntax,2023.2.3,MacIntel,59.88023952,,,,,32.7643,34.7573,n,0,0.3193,,34.7585,34.7607,,0,,,34.7615,36.2405,c,36.2418,42.271,c,0,10,10,10,1,cvmt/sample/s11.jpg,o,1.4636,,6.0017,
,,113834,119,1,2024-03-05_22h47.56.942,Memory and Syntax,2023.2.3,MacIntel,59.88023952,,,42.2737,43.173,43.1897,45.1893,n,1,1.5766,,45.1893,45.1896,,0,,,45.1897,45.1913,,45.1914,45.1923,,0,0,0,0,1,cvmt/test_items/t1.jpeg,n,,,,
,,113834,119,1,2024-03-05_22h47.56.942,Memory and Syntax,2023.2.3,MacIntel,59.88023952,,,,,45.1926,47.1895,n,1,0.3711,,47.1896,47.1897,,0,,,47.1898,47.1902,,47.1902,47.1905,,0,1,1,1,1,cvmt/test_items/t2.jpeg,n,,,,
,,113834,119,1,2024-03-05_22h47.56.942,Memory and Syntax,2023.2.3,MacIntel,59.88023952,,,,,47.1907,49.1887,n,0,0.2938,,49.1888,49.1889,,0,,,49.1889,49.1894,,49.1894,49.1894,,0,2,2,2,1,cvmt/test_items/t3.jpeg,o,,,,
,,113834,119,1,2024-03-05_22h47.56.942,Memory and Syntax,2023.2.3,MacIntel,59.88023952,,,,,49.1898,51.1872,n,0,0.2671,,51.1872,51.1874,,0,,,51.1874,51.1878,,51.1879,51.1879,,0,3,3,3,1,cvmt/test_items/t4.jpeg,o,,,,
,,113834,119,1,2024-03-05_22h47.56.942,Memory and Syntax,2023.2.3,MacIntel,59.88023952,,,,,51.1882,53.1877,n,0,0.323,,53.1878,53.1879,,0,,,53.188,53.1884,,53.1885,53.1885,,0,4,4,4,1,cvmt/test_items/t5.jpeg,o,,,,
,,113834,119,1,2024-03-05_22h47.56.942,Memory and Syntax,2023.2.3,MacIntel,59.88023952,,,,,53.1888,55.1886,n,0,1.3717,,55.1886,55.1888,,0,,,55.1888,55.1893,,55.1893,55.1893,,0,5,5,5,1,cvmt/test_items/t6.jpeg,o,,,,
,,113834,119,1,2024-03-05_22h47.56.942,Memory and Syntax,2023.2.3,MacIntel,59.88023952,,,,,55.1897,57.1876,n,0,0.4368,,57.1876,57.1879,,0,,,57.1879,57.1883,,57.1884,57.1884,,0,6,6,6,1,cvmt/test_items/t7.jpeg,o,,,,
,,113834,119,1,2024-03-05_22h47.56.942,Memory and Syntax,2023.2.3,MacIntel,59.88023952,,,,,57.1887,59.1907,n,0,0.3189,,59.1907,59.1909,,0,,,59.1909,59.1914,,59.1914,59.1914,,0,7,7,7,1,cvmt/test_items/t8.jpeg,o,,,,
,,113834,119,1,2024-03-05_22h47.56.942,Memory and Syntax,2023.2.3,MacIntel,59.88023952,,,,,59.1917,61.1907,n,0,0.3703,,61.1907,61.1909,,0,,,61.191,61.1913,,61.1914,61.1915,,0,8,8,8,1,cvmt/test_items/t9.jpeg,o,,,,
,,113834,119,1,2024-03-05_22h47.56.942,Memory and Syntax,2023.2.3,MacIntel,59.88023952,,,,,61.1917,63.1884,n,0,0.4031,,63.1884,63.1887,,0,,,63.1888,63.1891,,63.1891,63.1892,,0,9,9,9,1,cvmt/test_items/t10.jpeg,o,,,,
,,113834,119,1,2024-03-05_22h47.56.942,Memory and Syntax,2023.2.3,MacIntel,59.88023952,,,,,63.1895,65.1874,n,1,0.3661,,65.1874,65.1876,,0,,,65.1877,65.188,,65.1881,65.1882,,0,10,10,10,1,cvmt/test_items/t11.jpeg,n,,,,
,,113834,119,1,2024-03-05_22h47.56.942,Memory and Syntax,2023.2.3,MacIntel,59.88023952,,,,,65.1885,67.189,n,0,0.2751,,67.1891,67.1893,,0,,,67.1894,67.1898,,67.1898,67.1898,,0,11,11,11,1,cvmt/test_items/t12.jpeg,o,,,,
,,113834,119,1,2024-03-05_22h47.56.942,Memory and Syntax,2023.2.3,MacIntel,59.88023952,,,,,67.1901,69.1878,n,0,0.3972,,69.188,69.1883,,0,,,69.1884,69.1888,,69.1889,69.1889,,0,12,12,12,1,cvmt/test_items/t13.jpeg,o,,,,
,,113834,119,1,2024-03-05_22h47.56.942,Memory and Syntax,2023.2.3,MacIntel,59.88023952,,,,,69.1893,71.189,n,0,1.2634,,71.1891,71.1893,,0,,,71.1894,71.1897,,71.1897,71.1899,,0,13,13,13,1,cvmt/test_items/t14.jpeg,o,,,,
,,113834,119,1,2024-03-05_22h47.56.942,Memory and Syntax,2023.2.3,MacIntel,59.88023952,,,,,71.1902,73.1879,n,0,0.5256,,73.1879,73.1881,,0,,,73.1881,73.1885,,73.1885,73.1886,,0,14,14,14,1,cvmt/test_items/t15.jpeg,o,,,,
,,113834,119,1,2024-03-05_22h47.56.942,Memory and Syntax,2023.2.3,MacIntel,59.88023952,,,,,73.1889,75.1875,n,0,1.2893,,75.1876,75.1877,,0,,,75.1878,75.1881,,75.1881,75.1881,,0,15,15,15,1,cvmt/test_items/t16.jpeg,o,,,,
,,113834,119,1,2024-03-05_22h47.56.942,Memory and Syntax,2023.2.3,MacIntel,59.88023952,,,,,75.1883,77.1871,n,0,0.5159,,77.1872,77.1874,,0,,,77.1875,77.1879,,77.1879,77.188,,0,16,16,16,1,cvmt/test_items/t17.jpeg,o,,,,
,,113834,119,1,2024-03-05_22h47.56.942,Memory and Syntax,2023.2.3,MacIntel,59.88023952,,,,,77.1883,79.1878,,0,,,79.1878,81.7884,n,0,2.5765,,81.7885,81.8043,,81.8043,81.8044,,0,17,17,17,1,cvmt/test_items/t18.jpeg,o,,,,
,,113834,119,1,2024-03-05_22h47.56.942,Memory and Syntax,2023.2.3,MacIntel,59.88023952,,,,,81.8046,83.8048,n,1,0.8412,,83.8048,83.809,,0,,,83.809,83.8093,,83.8093,83.8094,,0,18,18,18,1,cvmt/test_items/t19.jpeg,n,,,,
,,113834,119,1,2024-03-05_22h47.56.942,Memory and Syntax,2023.2.3,MacIntel,59.88023952,,,,,83.8096,85.8053,n,0,0.375,,85.8055,85.8056,,0,,,85.8056,85.8061,,85.8062,85.8062,,0,19,19,19,1,cvmt/test_items/t20.jpeg,o,,,,
,,113834,119,1,2024-03-05_22h47.56.942,Memory and Syntax,2023.2.3,MacIntel,59.88023952,,,,,85.8064,87.8046,n,0,1.4622,,87.8046,88.274,n,0,0.4505,,88.274,88.2743,,88.2743,88.2745,,0,20,20,20,1,cvmt/test_items/t21.jpeg,o,,,,
,,113834,119,1,2024-03-05_22h47.56.942,Memory and Syntax,2023.2.3,MacIntel,59.88023952,,,,,88.2746,90.2709,n,0,0.2953,,90.271,90.3701,n,0,0.0813,,90.3701,90.3704,,90.3704,90.3704,,0,21,21,21,1,cvmt/test_items/t22.jpeg,o,,,,
,,113834,119,1,2024-03-05_22h47.56.942,Memory and Syntax,2023.2.3,MacIntel,59.88023952,,,,,90.3705,92.3729,n,1,0.1576,,92.3729,92.4735,n,1,0.0924,,92.4735,92.4871,,92.4871,92.4871,,0,22,22,22,1,cvmt/test_items/t23.jpeg,n,,,,
,,113834,119,1,2024-03-05_22h47.56.942,Memory and Syntax,2023.2.3,MacIntel,59.88023952,,,,,92.4873,94.4886,o,0,0.7644,,94.4887,94.5381,o,0,0.0314,,94.5381,94.5385,,94.5385,94.5386,,0,23,23,23,1,cvmt/test_items/t24.jpeg,n,,,,
,,113834,119,1,2024-03-05_22h47.56.942,Memory and Syntax,2023.2.3,MacIntel,59.88023952,,,,,94.5388,96.5375,o,1,0.2019,,96.5375,96.5378,,0,,,96.5378,96.5382,,96.5382,96.5382,,0,24,24,24,1,cvmt/test_items/t25.jpeg,o,,,,
,,113834,119,1,2024-03-05_22h47.56.942,Memory and Syntax,2023.2.3,MacIntel,59.88023952,,,,,96.5386,98.5383,o,0,0.0178,,98.5383,98.5385,,0,,,98.5386,98.539,,98.5391,98.5392,,0,25,25,25,1,cvmt/test_items/t26.jpeg,n,,,,
,,113834,119,1,2024-03-05_22h47.56.942,Memory and Syntax,2023.2.3,MacIntel,59.88023952,,,,,98.5395,100.5398,o,1,0.2925,,100.5399,100.5401,,0,,,100.5401,100.5406,,100.5406,100.5407,,0,26,26,26,1,cvmt/test_items/t27.jpeg,o,,,,
,,113834,119,1,2024-03-05_22h47.56.942,Memory and Syntax,2023.2.3,MacIntel,59.88023952,,,,,100.5409,102.5382,o,0,0.3015,,102.5383,102.5385,,0,,,102.5385,102.5389,,102.539,102.5391,,0,27,27,27,1,cvmt/test_items/t28.jpeg,n,,,,
,,113834,119,1,2024-03-05_22h47.56.942,Memory and Syntax,2023.2.3,MacIntel,59.88023952,,,,,102.5394,104.5372,o,0,0.8494,,104.5372,104.5374,,0,,,104.5374,104.5379,,104.538,104.5381,,0,28,28,28,1,cvmt/test_items/t29.jpeg,n,,,,
,,113834,119,1,2024-03-05_22h47.56.942,Memory and Syntax,2023.2.3,MacIntel,59.88023952,,,,,104.5384,106.5373,o,1,0.5734,,106.5373,106.5375,,0,,,106.5375,106.5377,,106.5377,106.5377,,0,29,29,29,1,cvmt/test_items/t30.jpeg,o,,,,
,,113834,119,1,2024-03-05_22h47.56.942,Memory and Syntax,2023.2.3,MacIntel,59.88023952,,,,,106.5379,108.5382,o,1,0.3175,,108.5382,108.5384,,0,,,108.5385,108.5389,,108.539,108.539,,0,30,30,30,1,cvmt/test_items/t31.jpeg,o,,,,
,,113834,119,1,2024-03-05_22h47.56.942,Memory and Syntax,2023.2.3,MacIntel,59.88023952,,,,,108.5393,110.5373,o,0,0.2375,,110.5375,110.5376,,0,,,110.5377,110.538,,110.5381,110.5382,,0,31,31,31,1,cvmt/test_items/t32.jpeg,n,,,,
,,113834,119,1,2024-03-05_22h47.56.942,Memory and Syntax,2023.2.3,MacIntel,59.88023952,,,,,110.5385,177.5187,,0,,,177.5187,178.6028,n,1,1.067,,178.6029,178.6165,,178.6165,178.6165,,0,32,32,32,1,cvmt/test_items/t33.jpeg,n,,,,
,,113834,119,1,2024-03-05_22h47.56.942,Memory and Syntax,2023.2.3,MacIntel,59.88023952,,,,,178.6167,180.6188,n,0,0.491,,180.6189,180.6191,,0,,,180.6191,180.6194,,180.6194,180.6195,,0,33,33,33,1,cvmt/test_items/t34.jpeg,o,,,,