load.started,load.stopped,Sona ID,Participant ID,Session,date,expName,psychopyVersion,OS,frameRate,cvmtInstr.started,cvmtInstr.stopped,cvmtTaskInstr.started,cvmtTaskInstr.stopped,presentDesign.started,presentDesign.stopped,cvmt_key_resp.keys,cvmt_key_resp.corr,cvmtNoResp.started,cvmtNoResp.stopped,cvmt_key_resp2.keys,cvmt_key_resp2.corr,cvmt_key_resp2.rt,cvmt_key_resp2.duration,cvmtSampleFB.started,cvmtSampleFB.stopped,key_resp_15.keys,cvmtSampleFBFinal.started,cvmtSampleFBFinal.stopped,cvmt_final_samp_fb_key_resp.keys,cvmtTrials.thisRepN,cvmtTrials.thisTrialN,cvmtTrials.thisN,cvmtTrials.thisIndex,cvmtTrials.ran,cvmt_design,old_or_new,key_resp_15.rt,key_resp_15.duration,cvmt_key_resp.rt,cvmt_key_resp.duration,cvmt_final_samp_fb_key_resp.rt,cvmt_final_samp_fb_key_resp.duration,cvmtDelay.started,cvmtDelay.stopped,cvmt timer,engAJT_instr.started,engAJT_instr.stopped,start_ajt.keys,start_ajt.rt,start_ajt.duration,engAJT.started,engAJT.stopped,acceptability.response,acceptability.rt,engAJT_trials.thisRepN,engAJT_trials.thisTrialN,engAJT_trials.thisN,engAJT_trials.thisIndex,engAJT_trials.ran,ajt_list,list_position,condition,item,testSent
0.0013,0.2235,113834,119,1,2024-03-05_22h35.34.021,Memory and Syntax,2023.2.3,MacIntel,60.24096386,,,,,,,,,,,,,,,,,,,,,,,,,,,,,,,,,,,,,,,,,,,,,,,,,,,,,,,
,,113834,119,1,2024-03-05_22h35.34.021,Memory and Syntax,2023.2.3,MacIntel,60.24096386,0.2482,50.0881,50.0955,52.2734,52.3276,54.2895,,0,54.291,60.9075,n,1,6.5928,,60.9082,60.9201,,60.9208,60.9223,,0,0,0,0,1,cvmt/sample/s1.jpg,n,,,,,,,,,,,,,,,,,,,,,,,,,,,,
,,113834,119,1,2024-03-05_22h35.34.021,Memory and Syntax,2023.2.3,MacIntel,60.24096386,,,,,60.924,62.9222,,0,62.9232,65.5872,o,0,2.644,,65.5881,71.8372,c,71.8381,71.8397,,0,1,1,1,1,cvmt/sample/s2.jpg,n,6.2034,,,,,,,,,,,,,,,,,,,,,,,,,,,
,,113834,119,1,2024-03-05_22h35.34.021,Memory and Syntax,2023.2.3,MacIntel,60.24096386,,,,,71.853,73.8569,,0,73.8578,79.4717,o,1,5.5964,,79.4725,79.4872,,79.4877,79.4888,,0,2,2,2,1,cvmt/sample/s3.jpg,o,,,,,,,,,,,,,,,,,,,,,,,,,,,,
,,113834,119,1,2024-03-05_22h35.34.021,Memory and Syntax,2023.2.3,MacIntel,60.24096386,,,,,79.4903,81.4865,,0,81.4878,82.4891,n,1,0.9861,,82.4899,82.4918,,82.4925,82.4939,,0,3,3,3,1,cvmt/sample/s4.jpg,n,,,,,,,,,,,,,,,,,,,,,,,,,,,,
,,113834,119,1,2024-03-05_22h35.34.021,Memory and Syntax,2023.2.3,MacIntel,60.24096386,,,,,82.4962,84.4891,n,1,84.49,84.4919,,0,,,84.4928,84.4948,,84.4956,84.4971,,0,4,4,4,1,cvmt/sample/s5.jpg,n,,,1.0602,,,,,,,,,,,,,,,,,,,,,,,,,
,,113834,119,1,2024-03-05_22h35.34.021,Memory and Syntax,2023.2.3,MacIntel,60.24096386,,,,,84.4993,86.4888,n,1,86.4899,86.4919,,0,,,86.4927,86.4946,,86.4954,86.4969,,0,5,5,5,1,cvmt/sample/s6.jpg,n,,,0.8161,,,,,,,,,,,,,,,,,,,,,,,,,
,,113834,119,1,2024-03-05_22h35.34.021,Memory and Syntax,2023.2.3,MacIntel,60.24096386,,,,,86.4992,88.5023,o,1,88.5028,88.5036,,0,,,88.5041,88.505,,88.5054,88.5061,,0,6,6,6,1,cvmt/sample/s7.jpg,o,,,1.7846,,,,,,,,,,,,,,,,,,,,,,,,,
,,113834,119,1,2024-03-05_22h35.34.021,Memory and Syntax,2023.2.3,MacIntel,60.24096386,,,,,88.5073,90.5045,n,1,90.5057,90.5079,,0,,,90.5087,90.5107,,90.5116,90.5132,,0,7,7,7,1,cvmt/sample/s8.jpg,n,,,1.0719,,,,,,,,,,,,,,,,,,,,,,,,,
,,113834,119,1,2024-03-05_22h35.34.021,Memory and Syntax,2023.2.3,MacIntel,60.24096386,,,,,90.5154,92.5047,n,1,92.5055,92.5069,,0,,,92.5076,92.5093,,92.5099,92.5114,,0,8,8,8,1,cvmt/sample/s9.jpg,n,,,0.9868,,,,,,,,,,,,,,,,,,,,,,,,,
,,113834,119,1,2024-03-05_22h35.34.021,Memory and Syntax,2023.2.3,MacIntel,60.24096386,,,,,92.5131,94.5054,n,1,94.5065,94.5082,,0,,,94.509,94.5109,,94.5117,94.5134,,0,9,9,9,1,cvmt/sample/s10.jpg,n,,,0.7481,,,,,,,,,,,,,,,,,,,,,,,,,
,,113834,119,1,2024-03-05_22h35.34.021,Memory and Syntax,2023.2.3,MacIntel,60.24096386,,,,,94.5159,96.5051,n,0,96.506,96.5083,,0,,,96.5091,99.6369,c,99.6378,111.8811,c,0,10,10,10,1,cvmt/sample/s11.jpg,o,3.1078,,0.517,,12.2137,,,,,,,,,,,,,,,,,,,,,,,
,,113834,119,1,2024-03-05_22h35.34.021,Memory and Syntax,2023.2.3,MacIntel,60.24096386,,,111.8837,120.9166,120.927,122.9192,n,1,122.9193,122.9222,,0,,,122.9223,122.9238,,122.9238,122.9246,,0,0,0,0,1,cvmt/test_items/t1.jpeg,n,,,1.8295,,,,,,,,,,,,,,,,,,,,,,,,,
,,113834,119,1,2024-03-05_22h35.34.021,Memory and Syntax,2023.2.3,MacIntel,60.24096386,,,,,122.9248,124.9194,n,1,124.9195,124.9197,,0,,,124.9198,124.9201,,124.9202,124.9203,,0,1,1,1,1,cvmt/test_items/t2.jpeg,n,,,1.1497,,,,,,,,,,,,,,,,,,,,,,,,,
,,113834,119,1,2024-03-05_22h35.34.021,Memory and Syntax,2023.2.3,MacIntel,60.24096386,,,,,124.9205,126.9208,n,0,126.9209,126.9212,,0,,,126.9212,126.9216,,126.9216,126.9217,,0,2,2,2,1,cvmt/test_items/t3.jpeg,o,,,0.6317,,,,,,,,,,,,,,,,,,,,,,,,,
,,113834,119,1,2024-03-05_22h35.34.021,Memory and Syntax,2023.2.3,MacIntel,60.24096386,,,,,126.922,128.9215,n,0,128.9215,128.9217,,0,,,128.9217,128.9221,,128.9221,128.9221,,0,3,3,3,1,cvmt/test_items/t4.jpeg,o,,,0.8411,,,,,,,,,,,,,,,,,,,,,,,,,
,,113834,119,1,2024-03-05_22h35.34.021,Memory and Syntax,2023.2.3,MacIntel,60.24096386,,,,,128.9223,130.9211,n,0,130.9212,130.9214,,0,,,130.9214,130.9218,,130.9218,130.9219,,0,4,4,4,1,cvmt/test_items/t5.jpeg,o,,,0.7184,,,,,,,,,,,,,,,,,,,,,,,,,
,,113834,119,1,2024-03-05_22h35.34.021,Memory and Syntax,2023.2.3,MacIntel,60.24096386,,,,,130.9222,132.9181,n,0,132.9181,132.9184,,0,,,132.9184,132.9188,,132.9188,132.9189,,0,5,5,5,1,cvmt/test_items/t6.jpeg,o,,,0.6189,,,,,,,,,,,,,,,,,,,,,,,,,
,,113834,119,1,2024-03-05_22h35.34.021,Memory and Syntax,2023.2.3,MacIntel,60.24096386,,,,,132.9192,134.9198,n,0,134.9198,134.92,,0,,,134.9201,134.9205,,134.9205,134.9206,,0,6,6,6,1,cvmt/test_items/t7.jpeg,o,,,0.6806,,,,,,,,,,,,,,,,,,,,,,,,,
,,113834,119,1,2024-03-05_22h35.34.021,Memory and Syntax,2023.2.3,MacIntel,60.24096386,,,,,134.9209,136.9181,n,0,136.9182,136.9184,,0,,,136.9184,136.9189,,136.9189,136.9189,,0,7,7,7,1,cvmt/test_items/t8.jpeg,o,,,0.538,,,,,,,,,,,,,,,,,,,,,,,,,
,,113834,119,1,2024-03-05_22h35.34.021,Memory and Syntax,2023.2.3,MacIntel,60.24096386,,,,,136.9192,138.9196,,0,138.9196,153.1361,n,0,14.2079,,153.1362,153.1492,,153.1492,153.1492,,0,8,8,8,1,cvmt/test_items/t9.jpeg,o,,,,,,,,,,,,,,,,,,,,,,,,,,,,
,,113834,119,1,2024-03-05_22h35.34.021,Memory and Syntax,2023.2.3,MacIntel,60.24096386,,,,,153.1494,155.1521,o,1,155.1522,155.1562,,0,,,155.1562,155.1565,,155.1565,155.1566,,0,9,9,9,1,cvmt/test_items/t10.jpeg,o,,,1.3928,,,,,,,,,,,,,,,,,,,,,,,,,
,,113834,119,1,2024-03-05_22h35.34.021,Memory and Syntax,2023.2.3,MacIntel,60.24096386,,,,,155.1568,157.1531,n,1,157.1532,157.1534,,0,,,157.1534,157.1538,,157.1538,157.1539,,0,10,10,10,1,cvmt/test_items/t11.jpeg,n,,,1.5627,,,,,,,,,,,,,,,,,,,,,,,,,
,,113834,119,1,2024-03-05_22h35.34.021,Memory and Syntax,2023.2.3,MacIntel,60.24096386,,,,,157.1542,159.1549,n,0,159.155,159.1551,,0,,,159.1551,159.1555,,159.1555,159.1557,,0,11,11,11,1,cvmt/test_items/t12.jpeg,o,,,1.4005,,,,,,,,,,,,,,,,,,,,,,,,,
,,113834,119,1,2024-03-05_22h35.34.021,Memory and Syntax,2023.2.3,MacIntel,60.24096386,,,,,159.1559,161.1535,,0,161.1535,163.6509,o,1,2.4816,,163.6509,163.6638,,163.6638,163.6638,,0,12,12,12,1,cvmt/test_items/t13.jpeg,o,,,,,,,,,,,,,,,,,,,,,,,,,,,,
,,113834,119,1,2024-03-05_22h35.34.021,Memory and Syntax,2023.2.3,MacIntel,60.24096386,,,,,163.664,165.6526,o,1,165.6526,165.6567,,0,,,165.6568,165.6571,,165.6571,165.6572,,0,13,13,13,1,cvmt/test_items/t14.jpeg,o,,,1.7037,,,,,,,,,,,,,,,,,,,,,,,,,
,,113834,119,1,2024-03-05_22h35.34.021,Memory and Syntax,2023.2.3,MacIntel,60.24096386,,,,,165.6574,167.6519,o,1,167.652,167.6522,,0,,,167.6522,167.6527,,167.6527,167.6528,,0,14,14,14,1,cvmt/test_items/t15.jpeg,o,,,0.8561,,,,,,,,,,,,,,,,,,,,,,,,,
,,113834,119,1,2024-03-05_22h35.34.021,Memory and Syntax,2023.2.3,MacIntel,60.24096386,,,,,167.6531,169.6524,o,1,169.6525,169.6526,,0,,,169.6527,169.6531,,169.6531,169.6532,,0,15,15,15,1,cvmt/test_items/t16.jpeg,o,,,0.6757,,,,,,,,,,,,,,,,,,,,,,,,,
,,113834,119,1,2024-03-05_22h35.34.021,Memory and Syntax,2023.2.3,MacIntel,60.24096386,,,,,169.6535,171.6528,o,1,171.6528,171.653,,0,,,171.6531,171.6535,,171.6535,171.6536,,0,16,16,16,1,cvmt/test_items/t17.jpeg,o,,,0.6282,,,,,,,,,,,,,,,,,,,,,,,,,
,,113834,119,1,2024-03-05_22h35.34.021,Memory and Syntax,2023.2.3,MacIntel,60.24096386,,,,,171.6539,173.652,,0,173.6521,174.5348,o,1,0.8637,,174.5349,174.5353,,174.5353,174.5354,,0,17,17,17,1,cvmt/test_items/t18.jpeg,o,,,,,,,,,,,,,,,,,,,,,,,,,,,,
,,113834,119,1,2024-03-05_22h35.34.021,Memory and Syntax,2023.2.3,MacIntel,60.24096386,,,,,174.5356,176.537,o,0,176.537,176.5373,,0,,,176.5373,176.5377,,176.5377,176.5378,,0,18,18,18,1,cvmt/test_items/t19.jpeg,n,,,1.0275,,,,,,,,,,,,,,,,,,,,,,,,,
,,113834,119,1,2024-03-05_22h35.34.021,Memory and Syntax,2023.2.3,MacIntel,60.24096386,,,,,176.538,178.5368,o,1,178.5369,178.5371,,0,,,178.5371,178.5375,,178.5375,178.5376,,0,19,19,19,1,cvmt/test_items/t20.jpeg,o,,,1.3894,,,,,,,,,,,,,,,,,,,,,,,,,
,,113834,119,1,2024-03-05_22h35.34.021,Memory and Syntax,2023.2.3,MacIntel,60.24096386,,,,,178.5379,180.5364,n,0,180.5366,180.5368,,0,,,180.5368,180.5374,,180.5374,180.5374,,0,20,20,20,1,cvmt/test_items/t21.jpeg,o,,,1.4604,,,,,,,,,,,,,,,,,,,,,,,,,
,,113834,119,1,2024-03-05_22h35.34.021,Memory and Syntax,2023.2.3,MacIntel,60.24096386,,,,,180.5377,182.535,o,1,182.535,182.5352,,0,,,182.5353,182.5356,,182.5357,182.5358,,0,21,21,21,1,cvmt/test_items/t22.jpeg,o,,,1.2208,,,,,,,,,,,,,,,,,,,,,,,,,
,,113834,119,1,2024-03-05_22h35.34.021,Memory and Syntax,2023.2.3,MacIntel,60.24096386,,,,,182.5361,184.5378,o,0,184.5379,184.5381,,0,,,184.5381,184.5385,,184.5385,184.5387,,0,22,22,22,1,cvmt/test_items/t23.jpeg,n,,,0.8089,,,,,,,,,,,,,,,,,,,,,,,,,
,,113834,119,1,2024-03-05_22h35.34.021,Memory and Syntax,2023.2.3,MacIntel,60.24096386,,,,,184.5389,186.5359,o,0,186.5359,186.5361,,0,,,186.5362,186.5366,,186.5366,186.5367,,0,23,23,23,1,cvmt/test_items/t24.jpeg,n,,,0.6433,,,,,,,,,,,,,,,,,,,,,,,,,
,,113834,119,1,2024-03-05_22h35.34.021,Memory and Syntax,2023.2.3,MacIntel,60.24096386,,,,,186.537,188.536,,0,188.5361,196.4024,o,1,7.8586,,196.4024,196.4158,,196.4158,196.4158,,0,24,24,24,1,cvmt/test_items/t25.jpeg,o,,,,,,,,,,,,,,,,,,,,,,,,,,,,
,,113834,119,1,2024-03-05_22h35.34.021,Memory and Syntax,2023.2.3,MacIntel,60.24096386,,,,,196.4159,198.4039,o,0,198.4039,198.4079,,0,,,198.408,198.4083,,198.4083,198.4084,,0,25,25,25,1,cvmt/test_items/t26.jpeg,n,,,1.0554,,,,,,,,,,,,,,,,,,,,,,,,,
,,113834,119,1,2024-03-05_22h35.34.021,Memory and Syntax,2023.2.3,MacIntel,60.24096386,,,,,198.4085,200.4002,o,1,200.4003,200.4005,,0,,,200.4006,200.4009,,200.4009,200.401,,0,26,26,26,1,cvmt/test_items/t27.jpeg,o,,,0.7518,,,,,,,,,,,,,,,,,,,,,,,,,
,,113834,119,1,2024-03-05_22h35.34.021,Memory and Syntax,2023.2.3,MacIntel,60.24096386,,,,,200.4013,202.4009,,0,202.4009,205.503,o,0,3.0821,,205.5031,205.5163,,205.5163,205.5165,,0,27,27,27,1,cvmt/test_items/t28.jpeg,n,,,,,,,,,,,,,,,,,,,,,,,,,,,,
,,113834,119,1,2024-03-05_22h35.34.021,Memory and Syntax,2023.2.3,MacIntel,60.24096386,,,,,205.5166,207.5168,o,0,207.517,207.5203,,0,,,207.5203,207.5206,,207.5207,207.5208,,0,28,28,28,1,cvmt/test_items/t29.jpeg,n,,,0.7786,,,,,,,,,,,,,,,,,,,,,,,,,
,,113834,119,1,2024-03-05_22h35.34.021,Memory and Syntax,2023.2.3,MacIntel,60.24096386,,,,,207.521,209.5177,o,1,209.5178,209.518,,0,,,209.5181,209.5185,,209.5185,209.5185,,0,29,29,29,1,cvmt/test_items/t30.jpeg,o,,,0.3964,,,,,,,,,,,,,,,,,,,,,,,,,
,,113834,119,1,2024-03-05_22h35.34.021,Memory and Syntax,2023.2.3,MacIntel,60.24096386,,,,,209.5189,211.5169,o,1,211.5169,211.5172,,0,,,211.5173,211.5177,,211.5177,211.5178,,0,30,30,30,1,cvmt/test_items/t31.jpeg,o,,,0.7405,,,,,,,,,,,,,,,,,,,,,,,,,
,,113834,119,1,2024-03-05_22h35.34.021,Memory and Syntax,2023.2.3,MacIntel,60.24096386,,,,,211.5181,213.5174,o,0,213.5175,213.5176,,0,,,213.5177,213.5181,,213.5181,213.5184,,0,31,31,31,1,cvmt/test_items/t32.jpeg,n,,,0.6653,,,,,,,,,,,,,,,,,,,,,,,,,
,,113834,119,1,2024-03-05_22h35.34.021,Memory and Syntax,2023.2.3,MacIntel,60.24096386,,,,,213.5187,215.5187,o,0,215.5188,215.519,,0,,,215.5191,215.5194,,215.5195,215.5195,,0,32,32,32,1,cvmt/test_items/t33.jpeg,n,,,0.8198,,,,,,,,,,,,,,,,,,,,,,,,,
,,113834,119,1,2024-03-05_22h35.34.021,Memory and Syntax,2023.2.3,MacIntel,60.24096386,,,,,215.5199,217.5198,o,1,217.5198,217.52,,0,,,217.5201,217.5204,,217.5205,217.5205,,0,33,33,33,1,cvmt/test_items/t34.jpeg,o,,,1.1987,,,,,,,,,,,,,,,,,,,,,,,,,
,,113834,119,1,2024-03-05_22h35.34.021,Memory and Syntax,2023.2.3,MacIntel,60.24096386,,,,,217.5208,219.5195,o,0,219.5195,219.5198,,0,,,219.5198,219.5201,,219.5202,219.5203,,0,34,34,34,1,cvmt/test_items/t35.jpeg,n,,,0.7928,,,,,,,,,,,,,,,,,,,,,,,,,
,,113834,119,1,2024-03-05_22h35.34.021,Memory and Syntax,2023.2.3,MacIntel,60.24096386,,,,,219.5206,221.5168,o,1,221.5168,221.5171,,0,,,221.5171,221.5176,,221.5176,221.5177,,0,35,35,35,1,cvmt/test_items/t36.jpeg,o,,,0.6733,,,,,,,,,,,,,,,,,,,,,,,,,
,,113834,119,1,2024-03-05_22h35.34.021,Memory and Syntax,2023.2.3,MacIntel,60.24096386,,,,,221.5179,223.5205,o,0,223.5205,223.5208,,0,,,223.5208,223.5211,,223.5212,223.5213,,0,36,36,36,1,cvmt/test_items/t37.jpeg,n,,,0.6267,,,,,,,,,,,,,,,,,,,,,,,,,
,,113834,119,1,2024-03-05_22h35.34.021,Memory and Syntax,2023.2.3,MacIntel,60.24096386,,,,,223.5216,225.5167,o,1,225.5167,225.5169,,0,,,225.517,225.5173,,225.5174,225.5175,,0,37,37,37,1,cvmt/test_items/t38.jpeg,o,,,0.7906,,,,,,,,,,,,,,,,,,,,,,,,,
,,113834,119,1,2024-03-05_22h35.34.021,Memory and Syntax,2023.2.3,MacIntel,60.24096386,,,,,225.5178,227.5194,o,0,227.5194,227.5197,,0,,,227.5197,227.5202,,227.5202,227.5204,,0,38,38,38,1,cvmt/test_items/t39.jpeg,n,,,0.7381,,,,,,,,,,,,,,,,,,,,,,,,,
,,113834,119,1,2024-03-05_22h35.34.021,Memory and Syntax,2023.2.3,MacIntel,60.24096386,,,,,227.5207,229.5168,o,1,229.5168,229.5171,,0,,,229.5171,229.5175,,229.5176,229.5177,,0,39,39,39,1,cvmt/test_items/t40.jpeg,o,,,0.515,,,,,,,,,,,,,,,,,,,,,,,,,
,,113834,119,1,2024-03-05_22h35.34.021,Memory and Syntax,2023.2.3,MacIntel,60.24096386,,,,,229.518,231.5182,o,0,231.5182,231.5183,,0,,,231.5184,231.5188,,231.5188,231.5189,,0,40,40,40,1,cvmt/test_items/t41.jpeg,n,,,0.7176,,,,,,,,,,,,,,,,,,,,,,,,,
,,113834,119,1,2024-03-05_22h35.34.021,Memory and Syntax,2023.2.3,MacIntel,60.24096386,,,,,231.5192,233.5177,o,1,233.5178,233.518,,0,,,233.5181,233.5184,,233.5184,233.5185,,0,41,41,41,1,cvmt/test_items/t42.jpeg,o,,,0.5055,,,,,,,,,,,,,,,,,,,,,,,,,
,,113834,119,1,2024-03-05_22h35.34.021,Memory and Syntax,2023.2.3,MacIntel,60.24096386,,,,,233.5188,235.5179,o,1,235.518,235.5182,,0,,,235.5182,235.5187,,235.5187,235.5187,,0,42,42,42,1,cvmt/test_items/t43.jpeg,o,,,0.4821,,,,,,,,,,,,,,,,,,,,,,,,,
,,113834,119,1,2024-03-05_22h35.34.021,Memory and Syntax,2023.2.3,MacIntel,60.24096386,,,,,235.519,237.5191,o,0,237.5192,237.5194,,0,,,237.5194,237.5197,,237.5198,237.5199,,0,43,43,43,1,cvmt/test_items/t44.jpeg,n,,,0.3935,,,,,,,,,,,,,,,,,,,,,,,,,
,,113834,119,1,2024-03-05_22h35.34.021,Memory and Syntax,2023.2.3,MacIntel,60.24096386,,,,,237.5201,239.518,o,1,239.5181,239.5183,,0,,,239.5183,239.5186,,239.5186,239.5187,,0,44,44,44,1,cvmt/test_items/t45.jpeg,o,,,0.647,,,,,,,,,,,,,,,,,,,,,,,,,
,,113834,119,1,2024-03-05_22h35.34.021,Memory and Syntax,2023.2.3,MacIntel,60.24096386,,,,,239.519,241.5175,o,1,241.5176,241.5179,,0,,,241.5179,241.5183,,241.5183,241.5184,,0,45,45,45,1,cvmt/test_items/t46.jpeg,o,,,0.9435,,,,,,,,,,,,,,,,,,,,,,,,,
,,113834,119,1,2024-03-05_22h35.34.021,Memory and Syntax,2023.2.3,MacIntel,60.24096386,,,,,241.5186,243.5181,o,1,243.5182,243.5185,,0,,,243.5185,243.5189,,243.5189,243.519,,0,46,46,46,1,cvmt/test_items/t47.jpeg,o,,,1.9,,,,,,,,,,,,,,,,,,,,,,,,,
,,113834,119,1,2024-03-05_22h35.34.021,Memory and Syntax,2023.2.3,MacIntel,60.24096386,,,,,243.5193,245.5194,o,0,245.5194,245.5196,,0,,,245.5196,245.52,,245.52,245.5202,,0,47,47,47,1,cvmt/test_items/t48.jpeg,n,,,0.827,,,,,,,,,,,,,,,,,,,,,,,,,
,,113834,119,1,2024-03-05_22h35.34.021,Memory and Syntax,2023.2.3,MacIntel,60.24096386,,,,,245.5205,247.5194,,0,247.5194,247.6186,o,1,0.0792,,247.6186,247.619,,247.619,247.6191,,0,48,48,48,1,cvmt/test_items/t49.jpeg,o,,,,,,,,,,,,,,,,,,,,,,,,,,,,
,,113834,119,1,2024-03-05_22h35.34.021,Memory and Syntax,2023.2.3,MacIntel,60.24096386,,,,,247.6192,249.6174,o,1,249.6174,249.6176,,0,,,249.6176,249.618,,249.618,249.6181,,0,49,49,49,1,cvmt/test_items/t50.jpeg,o,,,0.7468,,,,,,,,,,,,,,,,,,,,,,,,,
,,113834,119,1,2024-03-05_22h35.34.021,Memory and Syntax,2023.2.3,MacIntel,60.24096386,,,,,249.6183,251.6187,o,0,251.6187,251.6189,,0,,,251.6189,251.6191,,251.6191,251.6191,,0,50,50,50,1,cvmt/test_items/t51.jpeg,n,,,0.2343,,,,,,,,,,,,,,,,,,,,,,,,,
,,113834,119,1,2024-03-05_22h35.34.021,Memory and Syntax,2023.2.3,MacIntel,60.24096386,,,,,251.6193,253.6192,o,1,253.6192,253.6196,,0,,,253.6196,253.62,,253.6201,253.6201,,0,51,51,51,1,cvmt/test_items/t52.jpeg,o,,,0.4779,,,,,,,,,,,,,,,,,,,,,,,,,
,,113834,119,1,2024-03-05_22h35.34.021,Memory and Syntax,2023.2.3,MacIntel,60.24096386,,,,,253.6203,255.6177,o,1,255.6178,255.618,,0,,,255.618,255.6185,,255.6185,255.6186,,0,52,52,52,1,cvmt/test_items/t53.jpeg,o,,,1.1435,,,,,,,,,,,,,,,,,,,,,,,,,
,,113834,119,1,2024-03-05_22h35.34.021,Memory and Syntax,2023.2.3,MacIntel,60.24096386,,,,,255.6188,257.6186,o,1,257.6186,257.6188,,0,,,257.6189,257.6193,,257.6193,257.6194,,0,53,53,53,1,cvmt/test_items/t54.jpeg,o,,,0.6953,,,,,,,,,,,,,,,,,,,,,,,,,
,,113834,119,1,2024-03-05_22h35.34.021,Memory and Syntax,2023.2.3,MacIntel,60.24096386,,,,,257.6197,259.6164,,0,259.6164,262.5164,o,1,2.8729,,262.5164,262.5323,,262.5324,262.5324,,0,54,54,54,1,cvmt/test_items/t55.jpeg,o,,,,,,,,,,,,,,,,,,,,,,,,,,,,
,,113834,119,1,2024-03-05_22h35.34.021,Memory and Syntax,2023.2.3,MacIntel,60.24096386,,,,,262.5326,264.5359,o,1,264.5359,264.54,,0,,,264.5401,264.5404,,264.5404,264.5405,,0,55,55,55,1,cvmt/test_items/t56.jpeg,o,,,0.627,,,,,,,,,,,,,,,,,,,,,,,,,
,,113834,119,1,2024-03-05_22h35.34.021,Memory and Syntax,2023.2.3,MacIntel,60.24096386,,,,,264.5407,266.5332,,0,266.5333,266.6666,o,1,0.1204,,266.6666,266.667,,266.667,266.667,,0,56,56,56,1,cvmt/test_items/t57.jpeg,o,,,,,,,,,,,,,,,,,,,,,,,,,,,,
,,113834,119,1,2024-03-05_22h35.34.021,Memory and Syntax,2023.2.3,MacIntel,60.24096386,,,,,266.6671,268.6684,o,0,268.6684,268.6686,,0,,,268.6686,268.669,,268.669,268.6691,,0,57,57,57,1,cvmt/test_items/t58.jpeg,n,,,0.5984,,,,,,,,,,,,,,,,,,,,,,,,,
,,113834,119,1,2024-03-05_22h35.34.021,Memory and Syntax,2023.2.3,MacIntel,60.24096386,,,,,268.6694,270.6683,o,0,270.6684,270.6686,,0,,,270.6686,270.6691,,270.6691,270.6692,,0,58,58,58,1,cvmt/test_items/t59.jpeg,n,,,0.5073,,,,,,,,,,,,,,,,,,,,,,,,,
,,113834,119,1,2024-03-05_22h35.34.021,Memory and Syntax,2023.2.3,MacIntel,60.24096386,,,,,270.6695,272.6697,,0,272.6699,281.2172,o,1,8.5247,,281.2172,281.2253,,281.2253,281.2253,,0,59,59,59,1,cvmt/test_items/t60.jpeg,o,,,,,,,,,,,,,,,,,,,,,,,,,,,,
,,113834,119,1,2024-03-05_22h35.34.021,Memory and Syntax,2023.2.3,MacIntel,60.24096386,,,,,281.2255,283.2174,o,1,283.2174,283.2211,,0,,,283.2212,283.2215,,283.2215,283.2216,,0,60,60,60,1,cvmt/test_items/t61.jpeg,o,,,0.5141,,,,,,,,,,,,,,,,,,,,,,,,,
,,113834,119,1,2024-03-05_22h35.34.021,Memory and Syntax,2023.2.3,MacIntel,60.24096386,,,,,283.2217,285.2162,o,1,285.2163,285.2165,,0,,,285.2165,285.2169,,285.2169,285.217,,0,61,61,61,1,cvmt/test_items/t62.jpeg,o,,,0.5294,,,,,,,,,,,,,,,,,,,,,,,,,
,,113834,119,1,2024-03-05_22h35.34.021,Memory and Syntax,2023.2.3,MacIntel,60.24096386,,,,,285.2173,287.2157,,0,287.2159,296.4824,o,1,9.2481,,296.4824,296.4939,,296.4939,296.4939,,0,62,62,62,1,cvmt/test_items/t63.jpeg,o,,,,,,,,,,,,,,,,,,,,,,,,,,,,
,,113834,119,1,2024-03-05_22h35.34.021,Memory and Syntax,2023.2.3,MacIntel,60.24096386,,,,,296.494,298.4838,o,1,298.4839,298.4876,,0,,,298.4876,298.4879,,298.488,298.488,,0,63,63,63,1,cvmt/test_items/t64.jpeg,o,,,0.628,,,,,,,,,,,,,,,,,,,,,,,,,
,,113834,119,1,2024-03-05_22h35.34.021,Memory and Syntax,2023.2.3,MacIntel,60.24096386,,,,,298.4882,300.4848,o,1,300.4849,300.485,,0,,,300.485,300.4854,,300.4854,300.4856,,0,64,64,64,1,cvmt/test_items/t65.jpeg,o,,,0.6119,,,,,,,,,,,,,,,,,,,,,,,,,
,,113834,119,1,2024-03-05_22h35.34.021,Memory and Syntax,2023.2.3,MacIntel,60.24096386,,,,,300.4858,302.4846,o,1,302.4848,302.4849,,0,,,302.4849,302.4853,,302.4853,302.4855,,0,65,65,65,1,cvmt/test_items/t66.jpeg,o,,,0.911,,,,,,,,,,,,,,,,,,,,,,,,,
,,113834,119,1,2024-03-05_22h35.34.021,Memory and Syntax,2023.2.3,MacIntel,60.24096386,,,,,302.4859,304.4839,o,0,304.4839,304.4841,,0,,,304.4841,304.4846,,304.4846,304.4846,,0,66,66,66,1,cvmt/test_items/t67.jpeg,n,,,0.352,,,,,,,,,,,,,,,,,,,,,,,,,
,,113834,119,1,2024-03-05_22h35.34.021,Memory and Syntax,2023.2.3,MacIntel,60.24096386,,,,,304.4849,306.4842,o,1,306.4842,306.4844,,0,,,306.4844,306.4848,,306.4848,306.4849,,0,67,67,67,1,cvmt/test_items/t68.jpeg,o,,,0.3618,,,,,,,,,,,,,,,,,,,,,,,,,
,,113834,119,1,2024-03-05_22h35.34.021,Memory and Syntax,2023.2.3,MacIntel,60.24096386,,,,,306.4852,308.4837,o,1,308.4837,308.4839,,0,,,308.484,308.4844,,308.4844,308.4845,,0,68,68,68,1,cvmt/test_items/t69.jpeg,o,,,0.0005,,,,,,,,,,,,,,,,,,,,,,,,,
,,113834,119,1,2024-03-05_22h35.34.021,Memory and Syntax,2023.2.3,MacIntel,60.24096386,,,,,308.4848,310.4858,o,1,310.4858,310.486,,0,,,310.4861,310.4865,,310.4865,310.4867,,0,69,69,69,1,cvmt/test_items/t70.jpeg,o,,,1.3281,,,,,,,,,,,,,,,,,,,,,,,,,
,,113834,119,1,2024-03-05_22h35.34.021,Memory and Syntax,2023.2.3,MacIntel,60.24096386,,,,,310.4869,312.4837,,0,312.4837,313.0016,o,0,0.5016,,313.0016,313.0139,,313.0139,313.0139,,0,70,70,70,1,cvmt/test_items/t71.jpeg,n,,,,,,,,,,,,,,,,,,,,,,,,,,,,
,,113834,119,1,2024-03-05_22h35.34.021,Memory and Syntax,2023.2.3,MacIntel,60.24096386,,,,,313.0141,315.0027,o,1,315.0028,315.0068,,0,,,315.0068,315.0071,,315.0071,315.0072,,0,71,71,71,1,cvmt/test_items/t72.jpeg,o,,,0.7213,,,,,,,,,,,,,,,,,,,,,,,,,
,,113834,119,1,2024-03-05_22h35.34.021,Memory and Syntax,2023.2.3,MacIntel,60.24096386,,,,,315.0074,316.999,o,1,316.999,316.9993,,0,,,316.9994,316.9998,,316.9998,316.9999,,0,72,72,72,1,cvmt/test_items/t73.jpeg,o,,,0.5163,,,,,,,,,,,,,,,,,,,,,,,,,
,,113834,119,1,2024-03-05_22h35.34.021,Memory and Syntax,2023.2.3,MacIntel,60.24096386,,,,,317.0002,319.0011,o,1,319.0012,319.0014,,0,,,319.0014,319.0018,,319.0018,319.0019,,0,73,73,73,1,cvmt/test_items/t74.jpeg,o,,,0.3766,,,,,,,,,,,,,,,,,,,,,,,,,
,,113834,119,1,2024-03-05_22h35.34.021,Memory and Syntax,2023.2.3,MacIntel,60.24096386,,,,,319.0022,321.0001,o,1,321.0001,321.0004,,0,,,321.0004,321.0008,,321.0009,321.0009,,0,74,74,74,1,cvmt/test_items/t75.jpeg,o,,,0.4547,,,,,,,,,,,,,,,,,,,,,,,,,
,,113834,119,1,2024-03-05_22h35.34.021,Memory and Syntax,2023.2.3,MacIntel,60.24096386,,,,,321.0013,322.9983,o,1,322.9983,322.9984,,0,,,322.9984,322.9986,,322.9986,322.9986,,0,75,75,75,1,cvmt/test_items/t76.jpeg,o,,,0.3128,,,,,,,,,,,,,,,,,,,,,,,,,
,,113834,119,1,2024-03-05_22h35.34.021,Memory and Syntax,2023.2.3,MacIntel,60.24096386,,,,,322.9988,325.0016,o,1,325.0016,325.0018,,0,,,325.0019,325.0023,,325.0023,325.0024,,0,76,76,76,1,cvmt/test_items/t77.jpeg,o,,,0.5015,,,,,,,,,,,,,,,,,,,,,,,,,
,,113834,119,1,2024-03-05_22h35.34.021,Memory and Syntax,2023.2.3,MacIntel,60.24096386,,,,,325.0026,327.0009,o,1,327.001,327.0012,,0,,,327.0012,327.0016,,327.0016,327.0017,,0,77,77,77,1,cvmt/test_items/t78.jpeg,o,,,0.515,,,,,,,,,,,,,,,,,,,,,,,,,
,,113834,119,1,2024-03-05_22h35.34.021,Memory and Syntax,2023.2.3,MacIntel,60.24096386,,,,,327.002,329.0028,o,1,329.0028,329.0031,,0,,,329.0031,329.0035,,329.0035,329.0035,,0,78,78,78,1,cvmt/test_items/t79.jpeg,o,,,0.6944,,,,,,,,,,,,,,,,,,,,,,,,,
,,113834,119,1,2024-03-05_22h35.34.021,Memory and Syntax,2023.2.3,MacIntel,60.24096386,,,,,329.0038,331.0007,o,0,331.0007,331.001,,0,,,331.001,331.0014,,331.0014,331.0014,,0,79,79,79,1,cvmt/test_items/t80.jpeg,n,,,0.3395,,,,,,,,,,,,,,,,,,,,,,,,,
,,113834,119,1,2024-03-05_22h35.34.021,Memory and Syntax,2023.2.3,MacIntel,60.24096386,,,,,331.0018,333.0019,o,1,333.0019,333.0021,,0,,,333.0021,333.0025,,333.0025,333.0027,,0,80,80,80,1,cvmt/test_items/t81.jpeg,o,,,0.4873,,,,,,,,,,,,,,,,,,,,,,,,,
,,113834,119,1,2024-03-05_22h35.34.021,Memory and Syntax,2023.2.3,MacIntel,60.24096386,,,,,333.0029,335.0019,o,1,335.0019,335.0021,,0,,,335.0021,335.0024,,335.0025,335.0026,,0,81,81,81,1,cvmt/test_items/t82.jpeg,o,,,0.4222,,,,,,,,,,,,,,,,,,,,,,,,,
,,113834,119,1,2024-03-05_22h35.34.021,Memory and Syntax,2023.2.3,MacIntel,60.24096386,,,,,335.0028,337.0019,o,1,337.002,337.0021,,0,,,337.0022,337.0025,,337.0026,337.0026,,0,82,82,82,1,cvmt/test_items/t83.jpeg,o,,,0.5012,,,,,,,,,,,,,,,,,,,,,,,,,
,,113834,119,1,2024-03-05_22h35.34.021,Memory and Syntax,2023.2.3,MacIntel,60.24096386,,,,,337.0029,339.0002,,0,339.0002,339.5494,o,1,0.5218,,339.5494,339.55,,339.55,339.5501,,0,83,83,83,1,cvmt/test_items/t84.jpeg,o,,,,,,,,,,,,,,,,,,,,,,,,,,,,
,,113834,119,1,2024-03-05_22h35.34.021,Memory and Syntax,2023.2.3,MacIntel,60.24096386,,,,,339.5503,341.5512,o,1,341.5512,341.5514,,0,,,341.5515,341.552,,341.552,341.5521,,0,84,84,84,1,cvmt/test_items/t85.jpeg,o,,,0.6637,,,,,,,,,,,,,,,,,,,,,,,,,
,,113834,119,1,2024-03-05_22h35.34.021,Memory and Syntax,2023.2.3,MacIntel,60.24096386,,,,,341.5524,343.5506,,0,343.5506,344.1507,o,1,0.5748,,344.1508,344.1513,,344.1513,344.1514,,0,85,85,85,1,cvmt/test_items/t86.jpeg,o,,,,,,,,,,,,,,,,,,,,,,,,,,,,
,,113834,119,1,2024-03-05_22h35.34.021,Memory and Syntax,2023.2.3,MacIntel,60.24096386,,,,,344.1516,346.151,,0,346.151,346.7015,o,1,0.5423,,346.7015,346.702,,346.702,346.7022,,0,86,86,86,1,cvmt/test_items/t87.jpeg,o,,,,,,,,,,,,,,,,,,,,,,,,,,,,
,,113834,119,1,2024-03-05_22h35.34.021,Memory and Syntax,2023.2.3,MacIntel,60.24096386,,,,,346.7024,348.7008,,0,348.7009,349.3169,o,0,0.6079,,349.3169,349.3261,,349.3262,349.3262,,0,87,87,87,1,cvmt/test_items/t88.jpeg,n,,,,,,,,,,,,,,,,,,,,,,,,,,,,
,,113834,119,1,2024-03-05_22h35.34.021,Memory and Syntax,2023.2.3,MacIntel,60.24096386,,,,,349.3263,351.3172,,0,351.3172,354.5522,o,0,3.2235,,354.5522,354.5678,,354.5679,354.568,,0,88,88,88,1,cvmt/test_items/t89.jpeg,n,,,,,,,,,,,,,,,,,,,,,,,,,,,,
,,113834,119,1,2024-03-05_22h35.34.021,Memory and Syntax,2023.2.3,MacIntel,60.24096386,,,,,354.5681,356.5671,o,1,356.5671,356.5701,,0,,,356.5701,356.5704,,356.5704,356.5705,,0,89,89,89,1,cvmt/test_items/t90.jpeg,o,,,0.5732,,,,,,,,,,,,,,,,,,,,,,,,,
,,113834,119,1,2024-03-05_22h35.34.021,Memory and Syntax,2023.2.3,MacIntel,60.24096386,,,,,356.5706,358.5652,o,1,358.5653,358.5654,,0,,,358.5655,358.5659,,358.5659,358.5659,,0,90,90,90,1,cvmt/test_items/t91.jpeg,o,,,0.7106,,,,,,,,,,,,,,,,,,,,,,,,,
,,113834,119,1,2024-03-05_22h35.34.021,Memory and Syntax,2023.2.3,MacIntel,60.24096386,,,,,358.5663,360.5677,,0,360.5677,361.267,o,1,0.6858,,361.267,361.2797,,361.2797,361.2798,,0,91,91,91,1,cvmt/test_items/t92.jpeg,o,,,,,,,,,,,,,,,,,,,,,,,,,,,,
,,113834,119,1,2024-03-05_22h35.34.021,Memory and Syntax,2023.2.3,MacIntel,60.24096386,,,,,361.2799,363.2841,,0,363.2841,427.6314,n,0,64.3304,,427.6314,427.6318,,427.6318,427.6319,,0,92,92,92,1,cvmt/test_items/t93.jpeg,o,,,,,,,,,,,,,,,,,,,,,,,,,,,,
,,113834,119,1,2024-03-05_22h35.34.021,Memory and Syntax,2023.2.3,MacIntel,60.24096386,,,,,427.6321,429.633,o,1,429.6331,429.637,,0,,,429.6371,429.6374,,429.6374,429.6375,,0,93,93,93,1,cvmt/test_items/t94.jpeg,o,,,1.1582,,,,,,,,,,,,,,,,,,,,,,,,,
,,113834,119,1,2024-03-05_22h35.34.021,Memory and Syntax,2023.2.3,MacIntel,60.24096386,,,,,429.6377,431.6318,o,1,431.6318,431.6321,,0,,,431.6321,431.6325,,431.6325,431.6326,,0,94,94,94,1,cvmt/test_items/t95.jpeg,o,,,0.65,,,,,,,,,,,,,,,,,,,,,,,,,
,,113834,119,1,2024-03-05_22h35.34.021,Memory and Syntax,2023.2.3,MacIntel,60.24096386,,,,,431.6329,433.6326,,0,433.6326,437.8815,o,1,4.2328,,437.8815,437.8819,,437.8819,437.882,,0,95,95,95,1,cvmt/test_items/t96.jpeg,o,,,,,,,,,,,,,,,,,,,,,,,,,,,,
,,113834,119,1,2024-03-05_22h35.34.021,Memory and Syntax,2023.2.3,MacIntel,60.24096386,,,,,437.8823,439.8821,o,1,439.8821,439.8861,,0,,,439.8861,439.8865,,439.8865,439.8866,,0,96,96,96,1,cvmt/test_items/t97.jpeg,o,,,0.4774,,,,,,,,,,,,,,,,,,,,,,,,,
,,113834,119,1,2024-03-05_22h35.34.021,Memory and Syntax,2023.2.3,MacIntel,60.24096386,,,,,439.8867,441.8811,o,0,441.8811,441.8814,,0,,,441.8814,441.8818,,441.8818,441.8819,,0,97,97,97,1,cvmt/test_items/t98.jpeg,n,,,0.0005,,,,,,,,,,,,,,,,,,,,,,,,,
,,113834,119,1,2024-03-05_22h35.34.021,Memory and Syntax,2023.2.3,MacIntel,60.24096386,,,,,441.8822,443.8805,o,1,443.8805,443.8807,,0,,,443.8807,443.8808,,443.8808,443.8809,,0,98,98,98,1,cvmt/test_items/t99.jpeg,o,,,0.0289,,,,,,,,,,,,,,,,,,,,,,,,,
,,113834,119,1,2024-03-05_22h35.34.021,Memory and Syntax,2023.2.3,MacIntel,60.24096386,,,,,443.881,445.8802,o,1,445.8802,445.8803,,0,,,445.8803,445.8806,,445.8806,445.8807,,0,99,99,99,1,cvmt/test_items/t100.jpeg,o,,,0.1206,,,,,,,,,,,,,,,,,,,,,,,,,
,,113834,119,1,2024-03-05_22h35.34.021,Memory and Syntax,2023.2.3,MacIntel,60.24096386,,,,,445.8809,447.8824,o,1,447.8825,447.8827,,0,,,447.8827,447.8831,,447.8831,447.8832,,0,100,100,100,1,cvmt/test_items/t101.jpeg,o,,,0.0181,,,,,,,,,,,,,,,,,,,,,,,,,
,,113834,119,1,2024-03-05_22h35.34.021,Memory and Syntax,2023.2.3,MacIntel,60.24096386,,,,,447.8835,449.8805,,0,449.8806,485.3795,o,1,35.4848,,485.3796,485.3892,,485.3892,485.3893,,0,101,101,101,1,cvmt/test_items/t102.jpeg,o,,,,,,,,,,,,,,,,,,,,,,,,,,,,
,,113834,119,1,2024-03-05_22h35.34.021,Memory and Syntax,2023.2.3,MacIntel,60.24096386,,,,,485.3894,487.38,o,1,487.38,487.3815,,0,,,487.3815,487.3817,,487.3817,487.3817,,0,102,102,102,1,cvmt/test_items/t103.jpeg,o,,,0.6774,,,,,,,,,,,,,,,,,,,,,,,,,
,,113834,119,1,2024-03-05_22h35.34.021,Memory and Syntax,2023.2.3,MacIntel,60.24096386,,,,,487.3818,489.3819,o,1,489.382,489.3822,,0,,,489.3822,489.3826,,489.3826,489.3827,,0,103,103,103,1,cvmt/test_items/t104.jpeg,o,,,0.3872,,,,,,,,,,,,,,,,,,,,,,,,,
,,113834,119,1,2024-03-05_22h35.34.021,Memory and Syntax,2023.2.3,MacIntel,60.24096386,,,,,489.3831,491.381,o,0,491.381,491.3812,,0,,,491.3812,491.3816,,491.3816,491.3817,,0,104,104,104,1,cvmt/test_items/t105.jpeg,n,,,1.4328,,,,,,,,,,,,,,,,,,,,,,,,,
,,113834,119,1,2024-03-05_22h35.34.021,Memory and Syntax,2023.2.3,MacIntel,60.24096386,,,,,491.382,493.3795,o,1,493.3795,493.3798,,0,,,493.3798,493.3801,,493.3802,493.3803,,0,105,105,105,1,cvmt/test_items/t106.jpeg,o,,,0.6393,,,,,,,,,,,,,,,,,,,,,,,,,
,,113834,119,1,2024-03-05_22h35.34.021,Memory and Syntax,2023.2.3,MacIntel,60.24096386,,,,,493.3806,495.3825,o,1,495.3826,495.3828,,0,,,495.3828,495.3832,,495.3832,495.3834,,0,106,106,106,1,cvmt/test_items/t107.jpeg,o,,,0.5197,,,,,,,,,,,,,,,,,,,,,,,,,
,,113834,119,1,2024-03-05_22h35.34.021,Memory and Syntax,2023.2.3,MacIntel,60.24096386,,,,,495.3836,497.3816,o,1,497.3816,497.3819,,0,,,497.3819,497.3823,,497.3823,497.3823,,0,107,107,107,1,cvmt/test_items/t108.jpeg,o,,,0.4588,,,,,,,,,,,,,,,,,,,,,,,,,
,,113834,119,1,2024-03-05_22h35.34.021,Memory and Syntax,2023.2.3,MacIntel,60.24096386,,,,,497.3826,499.3816,o,1,499.3816,499.3818,,0,,,499.3818,499.3822,,499.3822,499.3823,,0,108,108,108,1,cvmt/test_items/t109.jpeg,o,,,0.5542,,,,,,,,,,,,,,,,,,,,,,,,,
,,113834,119,1,2024-03-05_22h35.34.021,Memory and Syntax,2023.2.3,MacIntel,60.24096386,,,,,499.3827,501.3815,o,1,501.3815,501.3817,,0,,,501.3818,501.3822,,501.3822,501.3823,,0,109,109,109,1,cvmt/test_items/t110.jpeg,o,,,0.5371,,,,,,,,,,,,,,,,,,,,,,,,,
,,113834,119,1,2024-03-05_22h35.34.021,Memory and Syntax,2023.2.3,MacIntel,60.24096386,,,,,501.3825,503.3821,o,1,503.3821,503.3824,,0,,,503.3824,503.3828,,503.3828,503.3829,,0,110,110,110,1,cvmt/test_items/t111.jpeg,o,,,0.5472,,,,,,,,,,,,,,,,,,,,,,,,,
,,113834,119,1,2024-03-05_22h35.34.021,Memory and Syntax,2023.2.3,MacIntel,60.24096386,,,,,503.3832,505.3801,o,1,505.3801,505.3803,,0,,,505.3803,505.3807,,505.3807,505.3808,,0,111,111,111,1,cvmt/test_items/t112.jpeg,o,,,1.2944,,,,,,,,,,,,,,,,,,,,,,,,,
,,113834,119,1,2024-03-05_22h35.34.021,Memory and Syntax,2023.2.3,MacIntel,60.24096386,,,,,505.3811,507.3807,o,0,507.3808,507.3809,,0,,,507.3809,507.3814,,507.3814,507.3815,,0,112,112,112,1,cvmt/test_items/t113.jpeg,n,,,0.4859,,,,,,,,,,,,,,,,,,,,,,,,,
,,113834,119,1,2024-03-05_22h35.34.021,Memory and Syntax,2023.2.3,MacIntel,60.24096386,,,,,507.3817,509.3799,o,1,509.3799,509.3801,,0,,,509.3801,509.3806,,509.3806,509.3806,,0,113,113,113,1,cvmt/test_items/t114.jpeg,o,,,0.9231,,,,,,,,,,,,,,,,,,,,,,,,,
,,113834,119,1,2024-03-05_22h35.34.021,Memory and Syntax,2023.2.3,MacIntel,60.24096386,,,,,509.381,511.3797,o,1,511.3797,511.3799,,0,,,511.3799,511.3803,,511.3804,511.3805,,0,114,114,114,1,cvmt/test_items/t115.jpeg,o,,,0.5246,,,,,,,,,,,,,,,,,,,,,,,,,
,,113834,119,1,2024-03-05_22h35.34.021,Memory and Syntax,2023.2.3,MacIntel,60.24096386,,,,,511.3808,513.3806,o,1,513.3807,513.381,,0,,,513.381,513.3816,,513.3816,513.3817,,0,115,115,115,1,cvmt/test_items/t116.jpeg,o,,,0.5464,,,,,,,,,,,,,,,,,,,,,,,,,
,,113834,119,1,2024-03-05_22h35.34.021,Memory and Syntax,2023.2.3,MacIntel,60.24096386,,,,,513.382,515.382,o,1,515.382,515.3822,,0,,,515.3822,515.3826,,515.3827,515.3827,,0,116,116,116,1,cvmt/test_items/t117.jpeg,o,,,0.6538,,,,,,,,,,,,,,,,,,,,,,,,,
,,113834,119,1,2024-03-05_22h35.34.021,Memory and Syntax,2023.2.3,MacIntel,60.24096386,,,,,515.3829,517.3811,o,1,517.3812,517.3814,,0,,,517.3814,517.3818,,517.3818,517.3819,,0,117,117,117,1,cvmt/test_items/t118.jpeg,o,,,0.4221,,,,,,,,,,,,,,,,,,,,,,,,,
,,113834,119,1,2024-03-05_22h35.34.021,Memory and Syntax,2023.2.3,MacIntel,60.24096386,,,,,517.3822,519.3805,o,1,519.3806,519.3808,,0,,,519.3808,519.3813,,519.3813,519.3814,,0,118,118,118,1,cvmt/test_items/t119.jpeg,o,,,0.3237,,,,,,,,,,,,,,,,,,,,,,,,,
,,113834,119,1,2024-03-05_22h35.34.021,Memory and Syntax,2023.2.3,MacIntel,60.24096386,,,,,519.3816,521.3801,o,1,521.3801,521.3804,,0,,,521.3804,521.3808,,521.3808,521.381,,0,119,119,119,1,cvmt/test_items/t120.jpeg,o,,,0.688,,,,,,,,,,,,,,,,,,,,,,,,,
,,113834,119,1,2024-03-05_22h35.34.021,Memory and Syntax,2023.2.3,MacIntel,60.24096386,,,,,521.3812,523.3817,,0,523.3817,525.0308,o,1,1.637,,525.0308,525.0435,,525.0435,525.0436,,0,120,120,120,1,cvmt/test_items/t121.jpeg,o,,,,,,,,,,,,,,,,,,,,,,,,,,,,
,,113834,119,1,2024-03-05_22h35.34.021,Memory and Syntax,2023.2.3,MacIntel,60.24096386,,,,,525.0438,527.0342,o,1,527.0342,527.0369,,0,,,527.037,527.0373,,527.0373,527.0373,,0,121,121,121,1,cvmt/test_items/t122.jpeg,o,,,0.6983,,,,,,,,,,,,,,,,,,,,,,,,,
,,113834,119,1,2024-03-05_22h35.34.021,Memory and Syntax,2023.2.3,MacIntel,60.24096386,,,,,527.0376,529.0313,o,0,529.0314,529.0491,o,0,0.0005,,529.0492,529.0495,,529.0495,529.0496,,0,122,122,122,1,cvmt/test_items/t123.jpeg,n,,,0.3662,,,,,,,,,,,,,,,,,,,,,,,,,
,,113834,119,1,2024-03-05_22h35.34.021,Memory and Syntax,2023.2.3,MacIntel,60.24096386,,,,,529.0497,531.055,o,1,531.055,531.0551,,0,,,531.0551,531.0554,,531.0554,531.0556,,0,123,123,123,1,cvmt/test_items/t124.jpeg,o,,,0.1594,,,,,,,,,,,,,,,,,,,,,,,,,
,,113834,119,1,2024-03-05_22h35.34.021,Memory and Syntax,2023.2.3,MacIntel,60.24096386,,,,,531.0557,533.0498,o,1,533.0498,533.0501,,0,,,533.0501,533.0504,,533.0504,533.0505,,0,124,124,124,1,cvmt/test_items/t125.jpeg,o,,,0.055,,,,,,,,,,,,,,,,,,,,,,,,,
,,113834,119,1,2024-03-05_22h35.34.021,Memory and Syntax,2023.2.3,MacIntel,60.24096386,,,,,533.0507,535.0459,o,1,535.0459,541.0305,n,0,5.9655,,541.0305,541.0434,,541.0434,541.0435,,0,125,125,125,1,cvmt/test_items/t126.jpeg,o,,,0.1363,,,,,,,,,,,,,,,,,,,,,,,,,
,,113834,119,1,2024-03-05_22h35.34.021,Memory and Syntax,2023.2.3,MacIntel,60.24096386,,,,,541.0436,543.0477,n,0,543.0477,543.0517,,0,,,543.0517,543.0521,,543.0521,543.0522,,0,126,126,126,1,cvmt/test_items/t127.jpeg,o,,,0.1823,,,,,,,,,,,,,,,,,,,,,,,,,
,,113834,119,1,2024-03-05_22h35.34.021,Memory and Syntax,2023.2.3,MacIntel,60.24096386,,,,,543.0523,545.049,,0,545.049,550.2132,o,1,5.149,,550.2132,550.226,,550.226,550.2262,,0,127,127,127,1,cvmt/test_items/t128.jpeg,o,,,,,,,,,,,,,,,,,,,,,,,,,,,,
,,113834,119,1,2024-03-05_22h35.34.021,Memory and Syntax,2023.2.3,MacIntel,60.24096386,,,,,550.2263,552.2148,o,1,552.2149,552.2173,,0,,,552.2174,552.2176,,552.2176,552.2177,,0,128,128,128,1,cvmt/test_items/t129.jpeg,o,,,0.4251,,,,,,,,,,,,,,,,,,,,,,,,,
,,113834,119,1,2024-03-05_22h35.34.021,Memory and Syntax,2023.2.3,MacIntel,60.24096386,,,,,552.2178,554.2143,o,1,554.2143,554.2145,,0,,,554.2145,554.2151,,554.2151,554.2151,,0,129,129,129,1,cvmt/test_items/t130.jpeg,o,,,0.9047,,,,,,,,,,,,,,,,,,,,,,,,,
,,113834,119,1,2024-03-05_22h35.34.021,Memory and Syntax,2023.2.3,MacIntel,60.24096386,,,,,554.2154,556.214,o,0,556.214,556.2142,,0,,,556.2142,556.2146,,556.2147,556.2147,,0,130,130,130,1,cvmt/test_items/t131.jpeg,n,,,0.1379,,,,,,,,,,,,,,,,,,,,,,,,,
,,113834,119,1,2024-03-05_22h35.34.021,Memory and Syntax,2023.2.3,MacIntel,60.24096386,,,,,556.215,558.2139,o,1,558.2139,558.2141,,0,,,558.2141,558.2147,,558.2147,558.2148,,0,131,131,131,1,cvmt/test_items/t132.jpeg,o,,,0.9866,,,,,,,,,,,,,,,,,,,,,,,,,
,,113834,119,1,2024-03-05_22h35.34.021,Memory and Syntax,2023.2.3,MacIntel,60.24096386,,,,,558.2151,560.2139,o,1,560.2139,560.2141,,0,,,560.2142,560.2145,,560.2145,560.2146,,0,132,132,132,1,cvmt/test_items/t133.jpeg,o,,,0.4977,,,,,,,,,,,,,,,,,,,,,,,,,
,,113834,119,1,2024-03-05_22h35.34.021,Memory and Syntax,2023.2.3,MacIntel,60.24096386,,,,,560.2149,562.2117,o,1,562.2118,562.212,,0,,,562.212,562.2124,,562.2125,562.2126,,0,133,133,133,1,cvmt/test_items/t134.jpeg,o,,,0.0641,,,,,,,,,,,,,,,,,,,,,,,,,
,,113834,119,1,2024-03-05_22h35.34.021,Memory and Syntax,2023.2.3,MacIntel,60.24096386,,,,,562.2128,564.2136,o,1,564.2136,564.2139,,0,,,564.2139,564.2143,,564.2143,564.2144,,0,134,134,134,1,cvmt/test_items/t135.jpeg,o,,,0.4066,,,,,,,,,,,,,,,,,,,,,,,,,
,,113834,119,1,2024-03-05_22h35.34.021,Memory and Syntax,2023.2.3,MacIntel,60.24096386,,,,,,,,,,,,,,,,,,,,,,,,,,,,,,,,,,564.2149,564.2152,0.0003,564.2297,572.1129,space,7.2704,,572.1236,578.0513,4,5.9132,0,0,0,0,1,1,1,WOV,8B,Practiced the virtuoso many pieces.
,,113834,119,1,2024-03-05_22h35.34.021,Memory and Syntax,2023.2.3,MacIntel,60.24096386,,,,,,,,,,,,,,,,,,,,,,,,,,,,,,,,,,,,,,,,,,578.0518,589.0284,4.9,10.9669,0,1,1,1,1,1,2,AS,6A,The rickety old boat sank.
,,113834,119,1,2024-03-05_22h35.34.021,Memory and Syntax,2023.2.3,MacIntel,60.24096386,,,,,,,,,,,,,,,,,,,,,,,,,,,,,,,,,,,,,,,,,,589.0289,591.8793,7,2.8483,0,2,2,2,1,1,3,WO,6A,The waiter set the table promptly.
,,113834,119,1,2024-03-05_22h35.34.021,Memory and Syntax,2023.2.3,MacIntel,60.24096386,,,,,,,,,,,,,,,,,,,,,,,,,,,,,,,,,,,,,,,,,,591.8796,599.5783,1,7.6962,0,3,3,3,1,1,4,control,12B,They anticipate that everybody you do will contact Megan.
,,113834,119,1,2024-03-05_22h35.34.021,Memory and Syntax,2023.2.3,MacIntel,60.24096386,,,,,,,,,,,,,,,,,,,,,,,,,,,,,,,,,,,,,,,,,,599.5786,602.2292,7,2.6489,0,4,4,4,1,1,5,ASV,11B,The cat moved himself away.
,,113834,119,1,2024-03-05_22h35.34.021,Memory and Syntax,2023.2.3,MacIntel,60.24096386,,,,,,,,,,,,,,,,,,,,,,,,,,,,,,,,,,,,,,,,,,602.2295,608.3292,1,6.0907,0,5,5,5,1,1,6,ASV,7B,She laughed herself at the dog.
,,113834,119,1,2024-03-05_22h35.34.021,Memory and Syntax,2023.2.3,MacIntel,60.24096386,,,,,,,,,,,,,,,,,,,,,,,,,,,,,,,,,,,,,,,,,,608.3296,611.7288,6.9,3.3878,0,6,6,6,1,1,7,AS,5A,The professor cried about the article.
,,113834,119,1,2024-03-05_22h35.34.021,Memory and Syntax,2023.2.3,MacIntel,60.24096386,,,,,,,,,,,,,,,,,,,,,,,,,,,,,,,,,,,,,,,,,,611.7292,614.6784,6.9,2.939,0,7,7,7,1,1,8,WO,5A,My sibling expected a good grade.
,,113834,119,1,2024-03-05_22h35.34.021,Memory and Syntax,2023.2.3,MacIntel,60.24096386,,,,,,,,,,,,,,,,,,,,,,,,,,,,,,,,,,,,,,,,,,614.6789,624.4776,6,9.7958,0,8,8,8,1,1,9,filler,1A,There has been a man considered violent.
,,113834,119,1,2024-03-05_22h35.34.021,Memory and Syntax,2023.2.3,MacIntel,60.24096386,,,,,,,,,,,,,,,,,,,,,,,,,,,,,,,,,,,,,,,,,,624.4779,627.1119,6.9,2.6258,0,9,9,9,1,1,10,AS,2A,Taylor subscribed to the channel.
,,113834,119,1,2024-03-05_22h35.34.021,Memory and Syntax,2023.2.3,MacIntel,60.24096386,,,,,,,,,,,,,,,,,,,,,,,,,,,,,,,,,,,,,,,,,,627.1122,634.0778,1,6.9618,0,10,10,10,1,1,11,control,10B,There might fossils seem to be several miles underground.
,,113834,119,1,2024-03-05_22h35.34.021,Memory and Syntax,2023.2.3,MacIntel,60.24096386,,,,,,,,,,,,,,,,,,,,,,,,,,,,,,,,,,,,,,,,,,634.078,637.3794,6.9,3.291,0,11,11,11,1,1,12,ASV,8B,Esperanza sighed herself at the desk.
,,113834,119,1,2024-03-05_22h35.34.021,Memory and Syntax,2023.2.3,MacIntel,60.24096386,,,,,,,,,,,,,,,,,,,,,,,,,,,,,,,,,,,,,,,,,,637.3798,641.7122,1.1,4.3301,0,12,12,12,1,1,13,WOV,9B,Read we five pages each night.
,,113834,119,1,2024-03-05_22h35.34.021,Memory and Syntax,2023.2.3,MacIntel,60.24096386,,,,,,,,,,,,,,,,,,,,,,,,,,,,,,,,,,,,,,,,,,641.7126,644.2447,1.1,2.5228,0,13,13,13,1,1,14,WOV,7B,Frightened the eerie sound Seth.
,,113834,119,1,2024-03-05_22h35.34.021,Memory and Syntax,2023.2.3,MacIntel,60.24096386,,,,,,,,,,,,,,,,,,,,,,,,,,,,,,,,,,,,,,,,,,644.2451,646.7461,7,2.4886,0,14,14,14,1,1,15,filler,2A,"Arty is sick, and Mark is too."
,,113834,119,1,2024-03-05_22h35.34.021,Memory and Syntax,2023.2.3,MacIntel,60.24096386,,,,,,,,,,,,,,,,,,,,,,,,,,,,,,,,,,,,,,,,,,646.7465,649.1624,7,2.414,0,15,15,15,1,1,16,ASV,9B,The prime minister confessed herself to bribery.
,,113834,119,1,2024-03-05_22h35.34.021,Memory and Syntax,2023.2.3,MacIntel,60.24096386,,,,,,,,,,,,,,,,,,,,,,,,,,,,,,,,,,,,,,,,,,649.1627,653.5624,4.9,4.388,0,16,16,16,1,1,17,control,7B,Olivia told Gregory when to exonerate herself.
,,113834,119,1,2024-03-05_22h35.34.021,Memory and Syntax,2023.2.3,MacIntel,60.24096386,,,,,,,,,,,,,,,,,,,,,,,,,,,,,,,,,,,,,,,,,,653.563,655.9787,6.9,2.4052,0,17,17,17,1,1,18,control,11B,There are likely students to be in the library.
,,113834,119,1,2024-03-05_22h35.34.021,Memory and Syntax,2023.2.3,MacIntel,60.24096386,,,,,,,,,,,,,,,,,,,,,,,,,,,,,,,,,,,,,,,,,,655.9791,658.2113,6.9,2.2242,0,18,18,18,1,1,19,filler,5A,I told Mandy who would win the election.
,,113834,119,1,2024-03-05_22h35.34.021,Memory and Syntax,2023.2.3,MacIntel,60.24096386,,,,,,,,,,,,,,,,,,,,,,,,,,,,,,,,,,,,,,,,,,658.2116,660.7124,6.9,2.4896,0,19,19,19,1,1,20,control,9B,We consider there three problems.
,,113834,119,1,2024-03-05_22h35.34.021,Memory and Syntax,2023.2.3,MacIntel,60.24096386,,,,,,,,,,,,,,,,,,,,,,,,,,,,,,,,,,,,,,,,,,660.7127,666.8953,1.1,6.1756,0,20,20,20,1,1,21,control,8B,She called Victor and yelled at.
,,113834,119,1,2024-03-05_22h35.34.021,Memory and Syntax,2023.2.3,MacIntel,60.24096386,,,,,,,,,,,,,,,,,,,,,,,,,,,,,,,,,,,,,,,,,,666.8958,669.3297,6.9,2.4222,0,21,21,21,1,1,22,WO,4A,The bully pushed every student.
,,113834,119,1,2024-03-05_22h35.34.021,Memory and Syntax,2023.2.3,MacIntel,60.24096386,,,,,,,,,,,,,,,,,,,,,,,,,,,,,,,,,,,,,,,,,,669.3301,671.8443,6.9,2.5042,0,22,22,22,1,1,23,WO,3A,Miguel baked delicious cupcakes.
,,113834,119,1,2024-03-05_22h35.34.021,Memory and Syntax,2023.2.3,MacIntel,60.24096386,,,,,,,,,,,,,,,,,,,,,,,,,,,,,,,,,,,,,,,,,,671.8447,674.2118,7,2.3653,0,23,23,23,1,1,24,WO,1A,Abby answered the question.
,,113834,119,1,2024-03-05_22h35.34.021,Memory and Syntax,2023.2.3,MacIntel,60.24096386,,,,,,,,,,,,,,,,,,,,,,,,,,,,,,,,,,,,,,,,,,674.2121,676.794,7,2.573,0,24,24,24,1,1,25,filler,3A,Brittany attempted to touch the porcupine.
,,113834,119,1,2024-03-05_22h35.34.021,Memory and Syntax,2023.2.3,MacIntel,60.24096386,,,,,,,,,,,,,,,,,,,,,,,,,,,,,,,,,,,,,,,,,,676.7945,679.1963,7,2.4001,0,25,25,25,1,1,26,AS,3A,Gracie stayed by the window.
,,113834,119,1,2024-03-05_22h35.34.021,Memory and Syntax,2023.2.3,MacIntel,60.24096386,,,,,,,,,,,,,,,,,,,,,,,,,,,,,,,,,,,,,,,,,,679.1965,682.4786,1,3.2806,0,26,26,26,1,1,27,WOV,11B,Wrote she her boyfriend a poem.
,,113834,119,1,2024-03-05_22h35.34.021,Memory and Syntax,2023.2.3,MacIntel,60.24096386,,,,,,,,,,,,,,,,,,,,,,,,,,,,,,,,,,,,,,,,,,682.4789,684.7104,1.1,2.2301,0,27,27,27,1,1,28,WOV,12B,Watched Lily a movie.
,,113834,119,1,2024-03-05_22h35.34.021,Memory and Syntax,2023.2.3,MacIntel,60.24096386,,,,,,,,,,,,,,,,,,,,,,,,,,,,,,,,,,,,,,,,,,684.7107,689.4296,7,4.717,0,28,28,28,1,1,29,WO,2A,Jackie won the close race.
,,113834,119,1,2024-03-05_22h35.34.021,Memory and Syntax,2023.2.3,MacIntel,60.24096386,,,,,,,,,,,,,,,,,,,,,,,,,,,,,,,,,,,,,,,,,,689.43,691.8608,7,2.4226,0,29,29,29,1,1,30,AS,4A,Tomas drank from the water pitcher.
,,113834,119,1,2024-03-05_22h35.34.021,Memory and Syntax,2023.2.3,MacIntel,60.24096386,,,,,,,,,,,,,,,,,,,,,,,,,,,,,,,,,,,,,,,,,,691.8611,695.5612,1.1,3.6922,0,30,30,30,1,1,31,WOV,10B,Kissed Kareem his boyfriend.
,,113834,119,1,2024-03-05_22h35.34.021,Memory and Syntax,2023.2.3,MacIntel,60.24096386,,,,,,,,,,,,,,,,,,,,,,,,,,,,,,,,,,,,,,,,,,695.5617,698.5613,1.1,2.9886,0,31,31,31,1,1,32,ASV,10B,The children quieted themselves.
,,113834,119,1,2024-03-05_22h35.34.021,Memory and Syntax,2023.2.3,MacIntel,60.24096386,,,,,,,,,,,,,,,,,,,,,,,,,,,,,,,,,,,,,,,,,,698.5615,702.6605,6.8,4.0953,0,32,32,32,1,1,33,AS,1A,They fidgeted in their chairs.
,,113834,119,1,2024-03-05_22h35.34.021,Memory and Syntax,2023.2.3,MacIntel,60.24096386,,,,,,,,,,,,,,,,,,,,,,,,,,,,,,,,,,,,,,,,,,702.6607,707.2949,6,4.6236,0,33,33,33,1,1,34,filler,4A,It seems to him that Kim solved the problem.
,,113834,119,1,2024-03-05_22h35.34.021,Memory and Syntax,2023.2.3,MacIntel,60.24096386,,,,,,,,,,,,,,,,,,,,,,,,,,,,,,,,,,,,,,,,,,707.2952,710.4445,7,3.1478,0,34,34,34,1,1,35,ASV,12B,The swimmers shaved themselves.