load.started,load.stopped,Sona ID,Participant ID,Session,date,expName,psychopyVersion,OS,frameRate,cvmtInstr.started,cvmtInstr.stopped,cvmtTaskInstr.started,cvmtTaskInstr.stopped,presentDesign.started,presentDesign.stopped,cvmt_key_resp.keys,cvmt_key_resp.corr,cvmtNoResp.started,cvmtNoResp.stopped,cvmt_key_resp2.keys,cvmt_key_resp2.corr,cvmt_key_resp2.rt,cvmt_key_resp2.duration,cvmtSampleFB.started,cvmtSampleFB.stopped,key_resp_15.keys,cvmtSampleFBFinal.started,cvmtSampleFBFinal.stopped,cvmt_final_samp_fb_key_resp.keys,cvmtTrials.thisRepN,cvmtTrials.thisTrialN,cvmtTrials.thisN,cvmtTrials.thisIndex,cvmtTrials.ran,cvmt_design,old_or_new,cvmt_key_resp.rt,cvmt_key_resp.duration,key_resp_15.rt,key_resp_15.duration,cvmt_final_samp_fb_key_resp.rt,cvmt_final_samp_fb_key_resp.duration,cvmtDelay.started,cvmtDelay.stopped,cvmt timer,engAJT_instr.started,engAJT_instr.stopped,start_ajt.keys,start_ajt.rt,start_ajt.duration,engAJT.started,engAJT.stopped,acceptability.response,acceptability.rt,engAJT_trials.thisRepN,engAJT_trials.thisTrialN,engAJT_trials.thisN,engAJT_trials.thisIndex,engAJT_trials.ran,ajt_list,list_position,condition,item,testSent
0.0002,0.2037,115012,072,1,2024-03-07_12h23.33.037,Memory and Syntax,2023.2.3,Win32,59.88023952,,,,,,,,,,,,,,,,,,,,,,,,,,,,,,,,,,,,,,,,,,,,,,,,,,,,,,,
,,115012,072,1,2024-03-07_12h23.33.037,Memory and Syntax,2023.2.3,Win32,59.88023952,0.2433,8.6673,8.6796,9.3028,9.3549,11.321,,0,11.3233,11.4208,n,1,0.064,,11.4233,11.4501,,11.452,11.455,,0,0,0,0,1,cvmt/sample/s1.jpg,n,,,,,,,,,,,,,,,,,,,,,,,,,,,,
,,115012,072,1,2024-03-07_12h23.33.037,Memory and Syntax,2023.2.3,Win32,59.88023952,,,,,11.4583,13.4545,,0,13.4568,13.754,n,1,0.269,,13.7561,13.7612,,13.763,13.7664,,0,1,1,1,1,cvmt/sample/s2.jpg,n,,,,,,,,,,,,,,,,,,,,,,,,,,,,
,,115012,072,1,2024-03-07_12h23.33.037,Memory and Syntax,2023.2.3,Win32,59.88023952,,,,,13.7719,15.7714,,0,15.7739,16.2106,o,1,0.41,,16.2132,16.2178,,16.2193,16.223,,0,2,2,2,1,cvmt/sample/s3.jpg,o,,,,,,,,,,,,,,,,,,,,,,,,,,,,
,,115012,072,1,2024-03-07_12h23.33.037,Memory and Syntax,2023.2.3,Win32,59.88023952,,,,,16.2292,18.2208,n,1,18.2233,18.2284,,0,,,18.2301,18.2338,,18.2356,18.2394,,0,3,3,3,1,cvmt/sample/s4.jpg,n,1.433,,,,,,,,,,,,,,,,,,,,,,,,,,,
,,115012,072,1,2024-03-07_12h23.33.037,Memory and Syntax,2023.2.3,Win32,59.88023952,,,,,18.2438,20.2376,n,1,20.2399,20.2447,,0,,,20.2465,20.2501,,20.2518,20.2547,,0,4,4,4,1,cvmt/sample/s5.jpg,n,0.8889,,,,,,,,,,,,,,,,,,,,,,,,,,,
,,115012,072,1,2024-03-07_12h23.33.037,Memory and Syntax,2023.2.3,Win32,59.88023952,,,,,20.2586,22.2539,n,1,22.2564,22.261,,0,,,22.2627,22.2662,,22.2678,22.2708,,0,5,5,5,1,cvmt/sample/s6.jpg,n,0.8606,,,,,,,,,,,,,,,,,,,,,,,,,,,
,,115012,072,1,2024-03-07_12h23.33.037,Memory and Syntax,2023.2.3,Win32,59.88023952,,,,,22.276,24.2709,n,0,24.2732,24.2779,,0,,,24.2795,28.4378,c,28.4397,28.4442,,0,6,6,6,1,cvmt/sample/s7.jpg,o,0.3645,,4.1351,,,,,,,,,,,,,,,,,,,,,,,,,
,,115012,072,1,2024-03-07_12h23.33.037,Memory and Syntax,2023.2.3,Win32,59.88023952,,,,,28.4611,30.454,,0,30.456,31.0536,n,1,0.5689,,31.0556,31.0617,,31.0632,31.0664,,0,7,7,7,1,cvmt/sample/s8.jpg,n,,,,,,,,,,,,,,,,,,,,,,,,,,,,
,,115012,072,1,2024-03-07_12h23.33.037,Memory and Syntax,2023.2.3,Win32,59.88023952,,,,,31.0705,33.0703,n,1,33.0722,33.0771,,0,,,33.0791,33.0826,,33.084,33.0867,,0,8,8,8,1,cvmt/sample/s9.jpg,n,0.9442,,,,,,,,,,,,,,,,,,,,,,,,,,,
,,115012,072,1,2024-03-07_12h23.33.037,Memory and Syntax,2023.2.3,Win32,59.88023952,,,,,33.0901,35.0881,n,1,35.0912,35.0956,,0,,,35.0971,35.1005,,35.1019,35.1046,,0,9,9,9,1,cvmt/sample/s10.jpg,n,0.4286,,,,,,,,,,,,,,,,,,,,,,,,,,,
,,115012,072,1,2024-03-07_12h23.33.037,Memory and Syntax,2023.2.3,Win32,59.88023952,,,,,35.1079,37.104,,0,37.1065,37.6046,n,0,0.4713,,37.6069,43.2866,c,43.2887,51.2615,c,0,10,10,10,1,cvmt/sample/s11.jpg,o,,,5.6472,,7.9209,,,,,,,,,,,,,,,,,,,,,,,
,,115012,072,1,2024-03-07_12h23.33.037,Memory and Syntax,2023.2.3,Win32,59.88023952,,,51.2647,56.5889,56.6188,58.6018,,0,58.6018,58.9648,n,1,0.335,,58.9649,58.9673,,58.9674,58.9684,,0,0,0,0,1,cvmt/test_items/t1.jpeg,n,,,,,,,,,,,,,,,,,,,,,,,,,,,,
,,115012,072,1,2024-03-07_12h23.33.037,Memory and Syntax,2023.2.3,Win32,59.88023952,,,,,58.9689,60.9642,,0,60.9643,61.2682,n,1,0.291,,61.2682,61.2688,,61.2688,61.2688,,0,1,1,1,1,cvmt/test_items/t2.jpeg,n,,,,,,,,,,,,,,,,,,,,,,,,,,,,
,,115012,072,1,2024-03-07_12h23.33.037,Memory and Syntax,2023.2.3,Win32,59.88023952,,,,,61.2691,63.2685,,0,63.2685,63.5849,n,0,0.3006,,63.585,63.6032,,63.6032,63.6032,,0,2,2,2,1,cvmt/test_items/t3.jpeg,o,,,,,,,,,,,,,,,,,,,,,,,,,,,,
,,115012,072,1,2024-03-07_12h23.33.037,Memory and Syntax,2023.2.3,Win32,59.88023952,,,,,63.6034,65.6016,,0,65.6017,65.9181,n,0,0.2839,,65.9181,65.9186,,65.9186,65.9187,,0,3,3,3,1,cvmt/test_items/t4.jpeg,o,,,,,,,,,,,,,,,,,,,,,,,,,,,,
,,115012,072,1,2024-03-07_12h23.33.037,Memory and Syntax,2023.2.3,Win32,59.88023952,,,,,65.9189,67.9183,,0,67.9183,68.0799,n,0,0.1509,,68.0799,68.0805,,68.0805,68.0806,,0,4,4,4,1,cvmt/test_items/t5.jpeg,o,,,,,,,,,,,,,,,,,,,,,,,,,,,,
,,115012,072,1,2024-03-07_12h23.33.037,Memory and Syntax,2023.2.3,Win32,59.88023952,,,,,68.0809,70.0849,,0,70.0849,70.4016,n,0,0.2831,,70.4017,70.4022,,70.4022,70.4022,,0,5,5,5,1,cvmt/test_items/t6.jpeg,o,,,,,,,,,,,,,,,,,,,,,,,,,,,,
,,115012,072,1,2024-03-07_12h23.33.037,Memory and Syntax,2023.2.3,Win32,59.88023952,,,,,70.4026,72.4014,,0,72.4014,72.7516,n,0,0.338,,72.7516,72.7521,,72.7521,72.7522,,0,6,6,6,1,cvmt/test_items/t7.jpeg,o,,,,,,,,,,,,,,,,,,,,,,,,,,,,
,,115012,072,1,2024-03-07_12h23.33.037,Memory and Syntax,2023.2.3,Win32,59.88023952,,,,,72.7523,74.7517,,0,74.7519,74.9849,o,1,0.2181,,74.9849,74.9853,,74.9853,74.9854,,0,7,7,7,1,cvmt/test_items/t8.jpeg,o,,,,,,,,,,,,,,,,,,,,,,,,,,,,
,,115012,072,1,2024-03-07_12h23.33.037,Memory and Syntax,2023.2.3,Win32,59.88023952,,,,,74.9856,76.9848,,0,76.9849,77.1015,n,0,0.1019,,77.1015,77.102,,77.102,77.102,,0,8,8,8,1,cvmt/test_items/t9.jpeg,o,,,,,,,,,,,,,,,,,,,,,,,,,,,,
,,115012,072,1,2024-03-07_12h23.33.037,Memory and Syntax,2023.2.3,Win32,59.88023952,,,,,77.1023,79.1014,,0,79.1014,79.2846,n,0,0.1687,,79.2846,79.2852,,79.2852,79.2854,,0,9,9,9,1,cvmt/test_items/t10.jpeg,o,,,,,,,,,,,,,,,,,,,,,,,,,,,,
,,115012,072,1,2024-03-07_12h23.33.037,Memory and Syntax,2023.2.3,Win32,59.88023952,,,,,79.2857,81.28,,0,81.2801,81.368,n,1,0.0746,,81.3682,81.3686,,81.3686,81.3687,,0,10,10,10,1,cvmt/test_items/t11.jpeg,n,,,,,,,,,,,,,,,,,,,,,,,,,,,,
,,115012,072,1,2024-03-07_12h23.33.037,Memory and Syntax,2023.2.3,Win32,59.88023952,,,,,81.3689,83.3683,,0,83.3683,83.7846,n,0,0.4012,,83.7847,83.8026,,83.8027,83.8027,,0,11,11,11,1,cvmt/test_items/t12.jpeg,o,,,,,,,,,,,,,,,,,,,,,,,,,,,,
,,115012,072,1,2024-03-07_12h23.33.037,Memory and Syntax,2023.2.3,Win32,59.88023952,,,,,83.8029,85.8011,,0,85.8012,86.1847,n,0,0.3525,,86.1847,86.1852,,86.1853,86.1853,,0,12,12,12,1,cvmt/test_items/t13.jpeg,o,,,,,,,,,,,,,,,,,,,,,,,,,,,,
,,115012,072,1,2024-03-07_12h23.33.037,Memory and Syntax,2023.2.3,Win32,59.88023952,,,,,86.1857,88.1845,n,0,88.1846,88.1849,,0,,,88.1849,88.1854,,88.1855,88.1855,,0,13,13,13,1,cvmt/test_items/t14.jpeg,o,1.1688,,,,,,,,,,,,,,,,,,,,,,,,,,,
,,115012,072,1,2024-03-07_12h23.33.037,Memory and Syntax,2023.2.3,Win32,59.88023952,,,,,88.1858,90.1957,,0,90.1957,90.6175,n,0,0.4123,,90.6176,90.618,,90.618,90.618,,0,14,14,14,1,cvmt/test_items/t15.jpeg,o,,,,,,,,,,,,,,,,,,,,,,,,,,,,
,,115012,072,1,2024-03-07_12h23.33.037,Memory and Syntax,2023.2.3,Win32,59.88023952,,,,,90.6182,92.6173,,0,92.6173,93.3838,o,1,0.756,,93.3838,93.3843,,93.3844,93.3844,,0,15,15,15,1,cvmt/test_items/t16.jpeg,o,,,,,,,,,,,,,,,,,,,,,,,,,,,,
,,115012,072,1,2024-03-07_12h23.33.037,Memory and Syntax,2023.2.3,Win32,59.88023952,,,,,93.3846,95.3771,n,0,95.3771,95.3773,,0,,,95.3774,95.3778,,95.3778,95.3779,,0,16,16,16,1,cvmt/test_items/t17.jpeg,o,0.2079,,,,,,,,,,,,,,,,,,,,,,,,,,,
,,115012,072,1,2024-03-07_12h23.33.037,Memory and Syntax,2023.2.3,Win32,59.88023952,,,,,95.3782,97.3719,,0,97.3719,97.8341,o,1,0.4509,,97.8341,97.8504,,97.8505,97.8505,,0,17,17,17,1,cvmt/test_items/t18.jpeg,o,,,,,,,,,,,,,,,,,,,,,,,,,,,,
,,115012,072,1,2024-03-07_12h23.33.037,Memory and Syntax,2023.2.3,Win32,59.88023952,,,,,97.8508,99.8512,,0,99.8513,116.9843,o,0,17.1009,,116.9844,117.0034,,117.0034,117.0035,,0,18,18,18,1,cvmt/test_items/t19.jpeg,n,,,,,,,,,,,,,,,,,,,,,,,,,,,,
,,115012,072,1,2024-03-07_12h23.33.037,Memory and Syntax,2023.2.3,Win32,59.88023952,,,,,117.0037,119.0006,,0,119.0007,119.4671,n,0,0.4324,,119.4671,119.4676,,119.4676,119.4676,,0,19,19,19,1,cvmt/test_items/t20.jpeg,o,,,,,,,,,,,,,,,,,,,,,,,,,,,,
,,115012,072,1,2024-03-07_12h23.33.037,Memory and Syntax,2023.2.3,Win32,59.88023952,,,,,119.4678,121.4638,o,1,121.464,121.4671,,0,,,121.4671,121.4676,,121.4676,121.4676,,0,20,20,20,1,cvmt/test_items/t21.jpeg,o,0.0005,,,,,,,,,,,,,,,,,,,,,,,,,,,
,,115012,072,1,2024-03-07_12h23.33.037,Memory and Syntax,2023.2.3,Win32,59.88023952,,,,,121.4679,123.4671,,0,123.4673,125.634,n,0,2.1367,,125.634,125.652,,125.6521,125.6522,,0,21,21,21,1,cvmt/test_items/t22.jpeg,o,,,,,,,,,,,,,,,,,,,,,,,,,,,,
,,115012,072,1,2024-03-07_12h23.33.037,Memory and Syntax,2023.2.3,Win32,59.88023952,,,,,125.6524,127.6508,o,0,127.6508,127.6543,,0,,,127.6543,127.6548,,127.6548,127.6549,,0,22,22,22,1,cvmt/test_items/t23.jpeg,n,0.0005,,,,,,,,,,,,,,,,,,,,,,,,,,,
,,115012,072,1,2024-03-07_12h23.33.037,Memory and Syntax,2023.2.3,Win32,59.88023952,,,,,127.6551,129.6508,,0,129.6509,144.867,o,0,15.203,,144.8671,144.8858,,144.8858,144.8859,,0,23,23,23,1,cvmt/test_items/t24.jpeg,n,,,,,,,,,,,,,,,,,,,,,,,,,,,,
,,115012,072,1,2024-03-07_12h23.33.037,Memory and Syntax,2023.2.3,Win32,59.88023952,,,,,144.8862,146.8837,,0,146.8838,154.1608,n,0,7.2474,,154.1609,154.1791,,154.1791,154.1792,,0,24,24,24,1,cvmt/test_items/t25.jpeg,o,,,,,,,,,,,,,,,,,,,,,,,,,,,,
,,115012,072,1,2024-03-07_12h23.33.037,Memory and Syntax,2023.2.3,Win32,59.88023952,,,,,154.1794,156.167,,0,156.1671,161.8998,o,0,5.7005,,161.8999,161.9179,,161.9179,161.918,,0,25,25,25,1,cvmt/test_items/t26.jpeg,n,,,,,,,,,,,,,,,,,,,,,,,,,,,,
,,115012,072,1,2024-03-07_12h23.33.037,Memory and Syntax,2023.2.3,Win32,59.88023952,,,,,161.9182,163.9168,,0,163.9169,165.1667,n,0,1.2187,,165.1667,165.1846,,165.1847,165.1848,,0,26,26,26,1,cvmt/test_items/t27.jpeg,o,,,,,,,,,,,,,,,,,,,,,,,,,,,,
,,115012,072,1,2024-03-07_12h23.33.037,Memory and Syntax,2023.2.3,Win32,59.88023952,,,,,165.185,167.185,,0,167.1851,167.9665,o,0,0.7508,,167.9666,167.9672,,167.9672,167.9672,,0,27,27,27,1,cvmt/test_items/t28.jpeg,n,,,,,,,,,,,,,,,,,,,,,,,,,,,,
,,115012,072,1,2024-03-07_12h23.33.037,Memory and Syntax,2023.2.3,Win32,59.88023952,,,,,167.9674,169.979,,0,169.9791,170.3336,n,1,0.3417,,170.3337,170.351,,170.3511,170.3511,,0,28,28,28,1,cvmt/test_items/t29.jpeg,n,,,,,,,,,,,,,,,,,,,,,,,,,,,,
,,115012,072,1,2024-03-07_12h23.33.037,Memory and Syntax,2023.2.3,Win32,59.88023952,,,,,170.3512,172.3503,,0,172.3503,172.6832,o,1,0.2999,,172.6833,172.6838,,172.6838,172.6838,,0,29,29,29,1,cvmt/test_items/t30.jpeg,o,,,,,,,,,,,,,,,,,,,,,,,,,,,,
,,115012,072,1,2024-03-07_12h23.33.037,Memory and Syntax,2023.2.3,Win32,59.88023952,,,,,172.684,174.6835,,0,174.6835,175.0512,o,1,0.3569,,175.0513,175.0518,,175.0518,175.0519,,0,30,30,30,1,cvmt/test_items/t31.jpeg,o,,,,,,,,,,,,,,,,,,,,,,,,,,,,
,,115012,072,1,2024-03-07_12h23.33.037,Memory and Syntax,2023.2.3,Win32,59.88023952,,,,,175.0522,177.0616,,0,177.0617,177.3832,n,1,0.3125,,177.3832,177.3836,,177.3837,177.3838,,0,31,31,31,1,cvmt/test_items/t32.jpeg,n,,,,,,,,,,,,,,,,,,,,,,,,,,,,
,,115012,072,1,2024-03-07_12h23.33.037,Memory and Syntax,2023.2.3,Win32,59.88023952,,,,,177.384,179.3829,,0,179.383,179.6998,n,1,0.3014,,179.6998,179.7003,,179.7003,179.7003,,0,32,32,32,1,cvmt/test_items/t33.jpeg,n,,,,,,,,,,,,,,,,,,,,,,,,,,,,
,,115012,072,1,2024-03-07_12h23.33.037,Memory and Syntax,2023.2.3,Win32,59.88023952,,,,,179.7007,181.6997,,0,181.6997,182.0002,o,1,0.2682,,182.0004,182.0008,,182.0008,182.0009,,0,33,33,33,1,cvmt/test_items/t34.jpeg,o,,,,,,,,,,,,,,,,,,,,,,,,,,,,
,,115012,072,1,2024-03-07_12h23.33.037,Memory and Syntax,2023.2.3,Win32,59.88023952,,,,,182.0011,183.9965,,0,183.9966,184.4163,n,1,0.4089,,184.4164,184.4338,,184.4338,184.4339,,0,34,34,34,1,cvmt/test_items/t35.jpeg,n,,,,,,,,,,,,,,,,,,,,,,,,,,,,
,,115012,072,1,2024-03-07_12h23.33.037,Memory and Syntax,2023.2.3,Win32,59.88023952,,,,,184.4341,186.4332,,0,186.4333,186.7331,o,1,0.2694,,186.7332,186.7336,,186.7337,186.7337,,0,35,35,35,1,cvmt/test_items/t36.jpeg,o,,,,,,,,,,,,,,,,,,,,,,,,,,,,
,,115012,072,1,2024-03-07_12h23.33.037,Memory and Syntax,2023.2.3,Win32,59.88023952,,,,,186.7339,188.7335,,0,188.7336,189.0332,o,0,0.2835,,189.0333,189.0339,,189.0339,189.034,,0,36,36,36,1,cvmt/test_items/t37.jpeg,n,,,,,,,,,,,,,,,,,,,,,,,,,,,,
,,115012,072,1,2024-03-07_12h23.33.037,Memory and Syntax,2023.2.3,Win32,59.88023952,,,,,189.0342,191.033,,0,191.033,191.3334,n,0,0.2836,,191.3334,191.3339,,191.3339,191.334,,0,37,37,37,1,cvmt/test_items/t38.jpeg,o,,,,,,,,,,,,,,,,,,,,,,,,,,,,
,,115012,072,1,2024-03-07_12h23.33.037,Memory and Syntax,2023.2.3,Win32,59.88023952,,,,,191.3343,193.3298,,0,193.3299,193.5663,o,0,0.2213,,193.5663,193.5668,,193.5668,193.567,,0,38,38,38,1,cvmt/test_items/t39.jpeg,n,,,,,,,,,,,,,,,,,,,,,,,,,,,,
,,115012,072,1,2024-03-07_12h23.33.037,Memory and Syntax,2023.2.3,Win32,59.88023952,,,,,193.5673,195.566,n,0,195.5661,195.5664,,0,,,195.5664,195.5669,,195.567,195.5671,,0,39,39,39,1,cvmt/test_items/t40.jpeg,o,1.3713,,,,,,,,,,,,,,,,,,,,,,,,,,,
,,115012,072,1,2024-03-07_12h23.33.037,Memory and Syntax,2023.2.3,Win32,59.88023952,,,,,195.5674,197.5668,n,1,197.5668,197.5672,,0,,,197.5672,197.5675,,197.5676,197.5677,,0,40,40,40,1,cvmt/test_items/t41.jpeg,n,0.131,,,,,,,,,,,,,,,,,,,,,,,,,,,
,,115012,072,1,2024-03-07_12h23.33.037,Memory and Syntax,2023.2.3,Win32,59.88023952,,,,,197.5678,199.5609,,0,199.561,199.9994,n,0,0.4269,,199.9994,199.9999,,199.9999,199.9999,,0,41,41,41,1,cvmt/test_items/t42.jpeg,o,,,,,,,,,,,,,,,,,,,,,,,,,,,,
,,115012,072,1,2024-03-07_12h23.33.037,Memory and Syntax,2023.2.3,Win32,59.88023952,,,,,200.0002,201.9995,,0,201.9996,202.4006,o,1,0.388,,202.4007,202.4178,,202.4179,202.418,,0,42,42,42,1,cvmt/test_items/t43.jpeg,o,,,,,,,,,,,,,,,,,,,,,,,,,,,,
,,115012,072,1,2024-03-07_12h23.33.037,Memory and Syntax,2023.2.3,Win32,59.88023952,,,,,202.4183,204.416,,0,204.4161,204.7828,n,1,0.3357,,204.7828,204.7833,,204.7834,204.7835,,0,43,43,43,1,cvmt/test_items/t44.jpeg,n,,,,,,,,,,,,,,,,,,,,,,,,,,,,
,,115012,072,1,2024-03-07_12h23.33.037,Memory and Syntax,2023.2.3,Win32,59.88023952,,,,,204.7837,206.7824,,0,206.7824,207.0994,n,0,0.3033,,207.0994,207.1,,207.1001,207.1001,,0,44,44,44,1,cvmt/test_items/t45.jpeg,o,,,,,,,,,,,,,,,,,,,,,,,,,,,,
,,115012,072,1,2024-03-07_12h23.33.037,Memory and Syntax,2023.2.3,Win32,59.88023952,,,,,207.1004,209.0998,,0,209.0999,209.6784,o,1,0.5658,,209.6784,209.679,,209.679,209.6791,,0,45,45,45,1,cvmt/test_items/t46.jpeg,o,,,,,,,,,,,,,,,,,,,,,,,,,,,,
,,115012,072,1,2024-03-07_12h23.33.037,Memory and Syntax,2023.2.3,Win32,59.88023952,,,,,209.6794,211.6832,,0,211.6833,212.0207,o,1,0.327,,212.0208,212.0213,,212.0213,212.0214,,0,46,46,46,1,cvmt/test_items/t47.jpeg,o,,,,,,,,,,,,,,,,,,,,,,,,,,,,
,,115012,072,1,2024-03-07_12h23.33.037,Memory and Syntax,2023.2.3,Win32,59.88023952,,,,,212.0217,214.0166,,0,214.0167,214.483,n,1,0.4505,,214.4831,214.4992,,214.4992,214.4994,,0,47,47,47,1,cvmt/test_items/t48.jpeg,n,,,,,,,,,,,,,,,,,,,,,,,,,,,,
,,115012,072,1,2024-03-07_12h23.33.037,Memory and Syntax,2023.2.3,Win32,59.88023952,,,,,214.4996,216.4948,,0,216.4949,216.7993,o,1,0.2842,,216.7994,216.7999,,216.7999,216.7999,,0,48,48,48,1,cvmt/test_items/t49.jpeg,o,,,,,,,,,,,,,,,,,,,,,,,,,,,,
,,115012,072,1,2024-03-07_12h23.33.037,Memory and Syntax,2023.2.3,Win32,59.88023952,,,,,216.8001,218.7994,,0,218.7995,219.0997,o,1,0.2839,,219.0998,219.1003,,219.1003,219.1005,,0,49,49,49,1,cvmt/test_items/t50.jpeg,o,,,,,,,,,,,,,,,,,,,,,,,,,,,,
,,115012,072,1,2024-03-07_12h23.33.037,Memory and Syntax,2023.2.3,Win32,59.88023952,,,,,219.1007,221.0997,,0,221.0997,221.3959,n,1,0.2853,,221.396,221.3966,,221.3967,221.3967,,0,50,50,50,1,cvmt/test_items/t51.jpeg,n,,,,,,,,,,,,,,,,,,,,,,,,,,,,
,,115012,072,1,2024-03-07_12h23.33.037,Memory and Syntax,2023.2.3,Win32,59.88023952,,,,,221.3971,223.3924,,0,223.3924,223.7159,o,1,0.313,,223.716,223.7165,,223.7165,223.7166,,0,51,51,51,1,cvmt/test_items/t52.jpeg,o,,,,,,,,,,,,,,,,,,,,,,,,,,,,
,,115012,072,1,2024-03-07_12h23.33.037,Memory and Syntax,2023.2.3,Win32,59.88023952,,,,,223.7168,225.7271,,0,225.7272,226.0943,o,1,0.3584,,226.0943,226.0949,,226.0949,226.095,,0,52,52,52,1,cvmt/test_items/t53.jpeg,o,,,,,,,,,,,,,,,,,,,,,,,,,,,,
,,115012,072,1,2024-03-07_12h23.33.037,Memory and Syntax,2023.2.3,Win32,59.88023952,,,,,226.0952,228.0831,,0,228.0831,228.3899,o,1,0.2957,,228.39,228.3905,,228.3906,228.3906,,0,53,53,53,1,cvmt/test_items/t54.jpeg,o,,,,,,,,,,,,,,,,,,,,,,,,,,,,
,,115012,072,1,2024-03-07_12h23.33.037,Memory and Syntax,2023.2.3,Win32,59.88023952,,,,,228.3909,230.3825,,0,230.3826,230.7169,o,1,0.3225,,230.7169,230.7345,,230.7346,230.7346,,0,54,54,54,1,cvmt/test_items/t55.jpeg,o,,,,,,,,,,,,,,,,,,,,,,,,,,,,
,,115012,072,1,2024-03-07_12h23.33.037,Memory and Syntax,2023.2.3,Win32,59.88023952,,,,,230.7349,232.7253,,0,232.7254,233.0326,o,1,0.2844,,233.0327,233.0332,,233.0332,233.0333,,0,55,55,55,1,cvmt/test_items/t56.jpeg,o,,,,,,,,,,,,,,,,,,,,,,,,,,,,
,,115012,072,1,2024-03-07_12h23.33.037,Memory and Syntax,2023.2.3,Win32,59.88023952,,,,,233.0336,235.046,,0,235.046,235.3487,o,1,0.282,,235.3489,235.3495,,235.3495,235.3496,,0,56,56,56,1,cvmt/test_items/t57.jpeg,o,,,,,,,,,,,,,,,,,,,,,,,,,,,,
,,115012,072,1,2024-03-07_12h23.33.037,Memory and Syntax,2023.2.3,Win32,59.88023952,,,,,235.35,237.3491,,0,237.3492,237.7494,n,1,0.3671,,237.7495,237.75,,237.7501,237.7501,,0,57,57,57,1,cvmt/test_items/t58.jpeg,n,,,,,,,,,,,,,,,,,,,,,,,,,,,,
,,115012,072,1,2024-03-07_12h23.33.037,Memory and Syntax,2023.2.3,Win32,59.88023952,,,,,237.7503,239.7486,,0,239.7487,240.0657,n,1,0.3028,,240.0659,240.0663,,240.0663,240.0664,,0,58,58,58,1,cvmt/test_items/t59.jpeg,n,,,,,,,,,,,,,,,,,,,,,,,,,,,,
,,115012,072,1,2024-03-07_12h23.33.037,Memory and Syntax,2023.2.3,Win32,59.88023952,,,,,240.0666,242.0605,,0,242.0605,242.3489,o,1,0.2766,,242.349,242.3494,,242.3495,242.3495,,0,59,59,59,1,cvmt/test_items/t60.jpeg,o,,,,,,,,,,,,,,,,,,,,,,,,,,,,
,,115012,072,1,2024-03-07_12h23.33.037,Memory and Syntax,2023.2.3,Win32,59.88023952,,,,,242.3497,244.349,,0,244.3491,244.6894,o,1,0.3289,,244.6895,244.7051,,244.7051,244.7052,,0,60,60,60,1,cvmt/test_items/t61.jpeg,o,,,,,,,,,,,,,,,,,,,,,,,,,,,,
,,115012,072,1,2024-03-07_12h23.33.037,Memory and Syntax,2023.2.3,Win32,59.88023952,,,,,244.7054,246.6956,,0,246.6957,247.0494,n,0,0.3377,,247.0495,247.0501,,247.0501,247.0503,,0,61,61,61,1,cvmt/test_items/t62.jpeg,o,,,,,,,,,,,,,,,,,,,,,,,,,,,,
,,115012,072,1,2024-03-07_12h23.33.037,Memory and Syntax,2023.2.3,Win32,59.88023952,,,,,247.0505,249.0396,,0,249.0397,249.3777,n,0,0.3161,,249.3778,249.3784,,249.3784,249.3784,,0,62,62,62,1,cvmt/test_items/t63.jpeg,o,,,,,,,,,,,,,,,,,,,,,,,,,,,,
,,115012,072,1,2024-03-07_12h23.33.037,Memory and Syntax,2023.2.3,Win32,59.88023952,,,,,249.3786,251.3824,,0,251.3824,251.6986,n,0,0.3006,,251.6986,251.6991,,251.6991,251.6992,,0,63,63,63,1,cvmt/test_items/t64.jpeg,o,,,,,,,,,,,,,,,,,,,,,,,,,,,,
,,115012,072,1,2024-03-07_12h23.33.037,Memory and Syntax,2023.2.3,Win32,59.88023952,,,,,251.6994,253.6989,,0,253.6989,254.1323,n,0,0.4185,,254.1324,254.1328,,254.1329,254.133,,0,64,64,64,1,cvmt/test_items/t65.jpeg,o,,,,,,,,,,,,,,,,,,,,,,,,,,,,
,,115012,072,1,2024-03-07_12h23.33.037,Memory and Syntax,2023.2.3,Win32,59.88023952,,,,,254.1332,256.1326,,0,256.1327,256.4653,o,1,0.3208,,256.4653,256.4659,,256.4659,256.4659,,0,65,65,65,1,cvmt/test_items/t66.jpeg,o,,,,,,,,,,,,,,,,,,,,,,,,,,,,
,,115012,072,1,2024-03-07_12h23.33.037,Memory and Syntax,2023.2.3,Win32,59.88023952,,,,,256.4662,258.4653,,0,258.4653,258.7196,o,0,0.2433,,258.7196,258.7354,,258.7354,258.7354,,0,66,66,66,1,cvmt/test_items/t67.jpeg,n,,,,,,,,,,,,,,,,,,,,,,,,,,,,
,,115012,072,1,2024-03-07_12h23.33.037,Memory and Syntax,2023.2.3,Win32,59.88023952,,,,,258.7357,260.732,n,0,260.7321,260.7348,,0,,,260.7348,260.7352,,260.7352,260.7353,,0,67,67,67,1,cvmt/test_items/t68.jpeg,o,1.8546,,,,,,,,,,,,,,,,,,,,,,,,,,,
,,115012,072,1,2024-03-07_12h23.33.037,Memory and Syntax,2023.2.3,Win32,59.88023952,,,,,260.7355,262.7461,n,0,262.7462,262.7465,,0,,,262.7466,262.7472,,262.7472,262.7472,,0,68,68,68,1,cvmt/test_items/t69.jpeg,o,0.4501,,,,,,,,,,,,,,,,,,,,,,,,,,,
,,115012,072,1,2024-03-07_12h23.33.037,Memory and Syntax,2023.2.3,Win32,59.88023952,,,,,262.7476,264.7488,n,0,264.7489,264.7491,,0,,,264.7491,264.7496,,264.7496,264.7496,,0,69,69,69,1,cvmt/test_items/t70.jpeg,o,0.4688,,,,,,,,,,,,,,,,,,,,,,,,,,,
,,115012,072,1,2024-03-07_12h23.33.037,Memory and Syntax,2023.2.3,Win32,59.88023952,,,,,264.7498,266.7488,,0,266.7488,267.182,o,0,0.4026,,267.1821,267.1826,,267.1826,267.1826,,0,70,70,70,1,cvmt/test_items/t71.jpeg,n,,,,,,,,,,,,,,,,,,,,,,,,,,,,
,,115012,072,1,2024-03-07_12h23.33.037,Memory and Syntax,2023.2.3,Win32,59.88023952,,,,,267.1829,269.1822,o,1,269.1822,269.1824,,0,,,269.1824,269.183,,269.183,269.1831,,0,71,71,71,1,cvmt/test_items/t72.jpeg,o,1.5676,,,,,,,,,,,,,,,,,,,,,,,,,,,
,,115012,072,1,2024-03-07_12h23.33.037,Memory and Syntax,2023.2.3,Win32,59.88023952,,,,,269.1834,271.1824,o,1,271.1824,271.1827,,0,,,271.1827,271.1832,,271.1832,271.1834,,0,72,72,72,1,cvmt/test_items/t73.jpeg,o,0.213,,,,,,,,,,,,,,,,,,,,,,,,,,,
,,115012,072,1,2024-03-07_12h23.33.037,Memory and Syntax,2023.2.3,Win32,59.88023952,,,,,271.1837,273.1824,o,1,273.1824,273.1827,,0,,,273.1827,273.1832,,273.1832,273.1832,,0,73,73,73,1,cvmt/test_items/t74.jpeg,o,0.2687,,,,,,,,,,,,,,,,,,,,,,,,,,,
,,115012,072,1,2024-03-07_12h23.33.037,Memory and Syntax,2023.2.3,Win32,59.88023952,,,,,273.1834,275.182,o,1,275.182,275.1822,,0,,,275.1822,275.1826,,275.1827,275.1828,,0,74,74,74,1,cvmt/test_items/t75.jpeg,o,1.237,,,,,,,,,,,,,,,,,,,,,,,,,,,
,,115012,072,1,2024-03-07_12h23.33.037,Memory and Syntax,2023.2.3,Win32,59.88023952,,,,,275.1829,277.1819,o,1,277.182,277.1821,,0,,,277.1822,277.1826,,277.1826,277.1826,,0,75,75,75,1,cvmt/test_items/t76.jpeg,o,1.9025,,,,,,,,,,,,,,,,,,,,,,,,,,,
,,115012,072,1,2024-03-07_12h23.33.037,Memory and Syntax,2023.2.3,Win32,59.88023952,,,,,277.1828,279.182,o,1,279.1821,279.1823,,0,,,279.1823,279.1828,,279.1828,279.1828,,0,76,76,76,1,cvmt/test_items/t77.jpeg,o,0.3007,,,,,,,,,,,,,,,,,,,,,,,,,,,
,,115012,072,1,2024-03-07_12h23.33.037,Memory and Syntax,2023.2.3,Win32,59.88023952,,,,,279.183,281.1817,,0,281.1818,282.5477,o,1,1.3514,,282.5477,282.548,,282.548,282.5481,,0,77,77,77,1,cvmt/test_items/t78.jpeg,o,,,,,,,,,,,,,,,,,,,,,,,,,,,,
,,115012,072,1,2024-03-07_12h23.33.037,Memory and Syntax,2023.2.3,Win32,59.88023952,,,,,282.5482,284.5479,,0,284.548,285.2813,n,0,0.704,,285.2814,285.2947,,285.2947,285.2948,,0,78,78,78,1,cvmt/test_items/t79.jpeg,o,,,,,,,,,,,,,,,,,,,,,,,,,,,,
,,115012,072,1,2024-03-07_12h23.33.037,Memory and Syntax,2023.2.3,Win32,59.88023952,,,,,285.295,287.2983,,0,287.2984,287.6146,o,0,0.2803,,287.6147,287.6149,,287.6149,287.6149,,0,79,79,79,1,cvmt/test_items/t80.jpeg,n,,,,,,,,,,,,,,,,,,,,,,,,,,,,
,,115012,072,1,2024-03-07_12h23.33.037,Memory and Syntax,2023.2.3,Win32,59.88023952,,,,,287.615,289.6083,,0,289.6083,289.9487,n,0,0.3317,,289.9487,289.9492,,289.9492,289.9492,,0,80,80,80,1,cvmt/test_items/t81.jpeg,o,,,,,,,,,,,,,,,,,,,,,,,,,,,,
,,115012,072,1,2024-03-07_12h23.33.037,Memory and Syntax,2023.2.3,Win32,59.88023952,,,,,289.9494,291.9413,,0,291.9414,292.2506,o,1,0.3004,,292.2508,292.2514,,292.2514,292.2514,,0,81,81,81,1,cvmt/test_items/t82.jpeg,o,,,,,,,,,,,,,,,,,,,,,,,,,,,,
,,115012,072,1,2024-03-07_12h23.33.037,Memory and Syntax,2023.2.3,Win32,59.88023952,,,,,292.2517,294.2484,,0,294.2484,294.5984,n,0,0.3343,,294.5984,294.5988,,294.5988,294.5988,,0,82,82,82,1,cvmt/test_items/t83.jpeg,o,,,,,,,,,,,,,,,,,,,,,,,,,,,,
,,115012,072,1,2024-03-07_12h23.33.037,Memory and Syntax,2023.2.3,Win32,59.88023952,,,,,294.5991,296.5986,,0,296.5987,296.8986,o,1,0.2838,,296.8986,296.917,,296.917,296.917,,0,83,83,83,1,cvmt/test_items/t84.jpeg,o,,,,,,,,,,,,,,,,,,,,,,,,,,,,
,,115012,072,1,2024-03-07_12h23.33.037,Memory and Syntax,2023.2.3,Win32,59.88023952,,,,,296.9173,298.9146,,0,298.9147,299.2314,n,0,0.2852,,299.2314,299.2319,,299.2319,299.232,,0,84,84,84,1,cvmt/test_items/t85.jpeg,o,,,,,,,,,,,,,,,,,,,,,,,,,,,,
,,115012,072,1,2024-03-07_12h23.33.037,Memory and Syntax,2023.2.3,Win32,59.88023952,,,,,299.2321,301.2318,,0,301.2318,301.565,o,1,0.317,,301.5651,301.5655,,301.5655,301.5657,,0,85,85,85,1,cvmt/test_items/t86.jpeg,o,,,,,,,,,,,,,,,,,,,,,,,,,,,,
,,115012,072,1,2024-03-07_12h23.33.037,Memory and Syntax,2023.2.3,Win32,59.88023952,,,,,301.5659,303.5645,,0,303.5646,305.4648,o,1,1.8845,,305.4648,305.4811,,305.4811,305.4811,,0,86,86,86,1,cvmt/test_items/t87.jpeg,o,,,,,,,,,,,,,,,,,,,,,,,,,,,,
,,115012,072,1,2024-03-07_12h23.33.037,Memory and Syntax,2023.2.3,Win32,59.88023952,,,,,305.4814,307.4814,,0,307.4815,307.8645,o,0,0.3484,,307.8646,307.865,,307.8651,307.8651,,0,87,87,87,1,cvmt/test_items/t88.jpeg,n,,,,,,,,,,,,,,,,,,,,,,,,,,,,
,,115012,072,1,2024-03-07_12h23.33.037,Memory and Syntax,2023.2.3,Win32,59.88023952,,,,,307.8653,309.8645,,0,309.8646,310.2549,o,0,0.3788,,310.2549,310.2554,,310.2555,310.2555,,0,88,88,88,1,cvmt/test_items/t89.jpeg,n,,,,,,,,,,,,,,,,,,,,,,,,,,,,
,,115012,072,1,2024-03-07_12h23.33.037,Memory and Syntax,2023.2.3,Win32,59.88023952,,,,,310.2559,312.2484,,0,312.2486,312.8982,n,0,0.6332,,312.8982,312.9164,,312.9164,312.9165,,0,89,89,89,1,cvmt/test_items/t90.jpeg,o,,,,,,,,,,,,,,,,,,,,,,,,,,,,
,,115012,072,1,2024-03-07_12h23.33.037,Memory and Syntax,2023.2.3,Win32,59.88023952,,,,,312.9168,314.9149,,0,314.9149,315.3333,n,0,0.3902,,315.3333,315.3339,,315.3339,315.334,,0,90,90,90,1,cvmt/test_items/t91.jpeg,o,,,,,,,,,,,,,,,,,,,,,,,,,,,,
,,115012,072,1,2024-03-07_12h23.33.037,Memory and Syntax,2023.2.3,Win32,59.88023952,,,,,315.3343,317.3315,,0,317.3316,317.4276,o,1,0.0846,,317.4276,317.4281,,317.4281,317.4282,,0,91,91,91,1,cvmt/test_items/t92.jpeg,o,,,,,,,,,,,,,,,,,,,,,,,,,,,,
,,115012,072,1,2024-03-07_12h23.33.037,Memory and Syntax,2023.2.3,Win32,59.88023952,,,,,317.4286,319.4312,o,1,319.4312,319.4315,,0,,,319.4315,319.4319,,319.432,319.432,,0,92,92,92,1,cvmt/test_items/t93.jpeg,o,1.765,,,,,,,,,,,,,,,,,,,,,,,,,,,
,,115012,072,1,2024-03-07_12h23.33.037,Memory and Syntax,2023.2.3,Win32,59.88023952,,,,,319.4323,321.4314,o,1,321.4314,321.4316,,0,,,321.4316,321.4321,,321.4322,321.4323,,0,93,93,93,1,cvmt/test_items/t94.jpeg,o,0.0794,,,,,,,,,,,,,,,,,,,,,,,,,,,
,,115012,072,1,2024-03-07_12h23.33.037,Memory and Syntax,2023.2.3,Win32,59.88023952,,,,,321.4326,323.4316,o,1,323.4317,323.4319,,0,,,323.4319,323.4326,,323.4326,323.4328,,0,94,94,94,1,cvmt/test_items/t95.jpeg,o,0.9559,,,,,,,,,,,,,,,,,,,,,,,,,,,
,,115012,072,1,2024-03-07_12h23.33.037,Memory and Syntax,2023.2.3,Win32,59.88023952,,,,,323.4331,325.4313,n,0,325.4314,325.4316,,0,,,325.4316,325.4321,,325.4321,325.4321,,0,95,95,95,1,cvmt/test_items/t96.jpeg,o,0.6656,,,,,,,,,,,,,,,,,,,,,,,,,,,
,,115012,072,1,2024-03-07_12h23.33.037,Memory and Syntax,2023.2.3,Win32,59.88023952,,,,,325.4323,327.4316,o,1,327.4316,327.4318,,0,,,327.4318,327.4322,,327.4323,327.4324,,0,96,96,96,1,cvmt/test_items/t97.jpeg,o,0.9267,,,,,,,,,,,,,,,,,,,,,,,,,,,
,,115012,072,1,2024-03-07_12h23.33.037,Memory and Syntax,2023.2.3,Win32,59.88023952,,,,,327.4326,329.4314,n,1,329.4315,329.4317,,0,,,329.4317,329.4321,,329.4321,329.4322,,0,97,97,97,1,cvmt/test_items/t98.jpeg,n,0.6888,,,,,,,,,,,,,,,,,,,,,,,,,,,
,,115012,072,1,2024-03-07_12h23.33.037,Memory and Syntax,2023.2.3,Win32,59.88023952,,,,,329.4324,331.4314,n,0,331.4314,331.4317,,0,,,331.4318,331.4323,,331.4323,331.4324,,0,98,98,98,1,cvmt/test_items/t99.jpeg,o,0.9025,,,,,,,,,,,,,,,,,,,,,,,,,,,
,,115012,072,1,2024-03-07_12h23.33.037,Memory and Syntax,2023.2.3,Win32,59.88023952,,,,,331.4327,333.4314,o,1,333.4314,333.4316,,0,,,333.4317,333.4322,,333.4323,333.4325,,0,99,99,99,1,cvmt/test_items/t100.jpeg,o,0.8652,,,,,,,,,,,,,,,,,,,,,,,,,,,
,,115012,072,1,2024-03-07_12h23.33.037,Memory and Syntax,2023.2.3,Win32,59.88023952,,,,,333.4327,335.4313,o,1,335.4313,335.4315,,0,,,335.4315,335.432,,335.432,335.4321,,0,100,100,100,1,cvmt/test_items/t101.jpeg,o,1.1187,,,,,,,,,,,,,,,,,,,,,,,,,,,
,,115012,072,1,2024-03-07_12h23.33.037,Memory and Syntax,2023.2.3,Win32,59.88023952,,,,,335.4323,337.4315,o,1,337.4315,337.4317,,0,,,337.4317,337.4321,,337.4322,337.4324,,0,101,101,101,1,cvmt/test_items/t102.jpeg,o,0.6729,,,,,,,,,,,,,,,,,,,,,,,,,,,
,,115012,072,1,2024-03-07_12h23.33.037,Memory and Syntax,2023.2.3,Win32,59.88023952,,,,,337.4327,339.4312,n,0,339.4312,339.4314,,0,,,339.4314,339.4319,,339.432,339.432,,0,102,102,102,1,cvmt/test_items/t103.jpeg,o,0.8541,,,,,,,,,,,,,,,,,,,,,,,,,,,
,,115012,072,1,2024-03-07_12h23.33.037,Memory and Syntax,2023.2.3,Win32,59.88023952,,,,,339.4322,341.4312,o,1,341.4312,341.4314,,0,,,341.4314,341.4319,,341.4319,341.432,,0,103,103,103,1,cvmt/test_items/t104.jpeg,o,0.8025,,,,,,,,,,,,,,,,,,,,,,,,,,,
,,115012,072,1,2024-03-07_12h23.33.037,Memory and Syntax,2023.2.3,Win32,59.88023952,,,,,341.4323,343.4198,n,1,343.4199,343.4201,,0,,,343.4201,343.4206,,343.4207,343.4207,,0,104,104,104,1,cvmt/test_items/t105.jpeg,n,1.0716,,,,,,,,,,,,,,,,,,,,,,,,,,,
,,115012,072,1,2024-03-07_12h23.33.037,Memory and Syntax,2023.2.3,Win32,59.88023952,,,,,343.4211,345.4142,n,0,345.4142,345.4144,,0,,,345.4144,345.4147,,345.4148,345.4148,,0,105,105,105,1,cvmt/test_items/t106.jpeg,o,0.7742,,,,,,,,,,,,,,,,,,,,,,,,,,,
,,115012,072,1,2024-03-07_12h23.33.037,Memory and Syntax,2023.2.3,Win32,59.88023952,,,,,345.415,347.4146,o,1,347.4146,347.4148,,0,,,347.4148,347.4152,,347.4152,347.4153,,0,106,106,106,1,cvmt/test_items/t107.jpeg,o,0.1004,,,,,,,,,,,,,,,,,,,,,,,,,,,
,,115012,072,1,2024-03-07_12h23.33.037,Memory and Syntax,2023.2.3,Win32,59.88023952,,,,,347.4156,349.4143,n,0,349.4143,349.4146,,0,,,349.4146,349.4149,,349.4149,349.415,,0,107,107,107,1,cvmt/test_items/t108.jpeg,o,0.8073,,,,,,,,,,,,,,,,,,,,,,,,,,,
,,115012,072,1,2024-03-07_12h23.33.037,Memory and Syntax,2023.2.3,Win32,59.88023952,,,,,349.4152,351.4255,o,1,351.4255,351.4257,,0,,,351.4257,351.4262,,351.4262,351.4263,,0,108,108,108,1,cvmt/test_items/t109.jpeg,o,0.8358,,,,,,,,,,,,,,,,,,,,,,,,,,,
,,115012,072,1,2024-03-07_12h23.33.037,Memory and Syntax,2023.2.3,Win32,59.88023952,,,,,351.4265,353.4144,n,0,353.4144,353.4146,,0,,,353.4147,353.415,,353.415,353.4151,,0,109,109,109,1,cvmt/test_items/t110.jpeg,o,1.0075,,,,,,,,,,,,,,,,,,,,,,,,,,,
,,115012,072,1,2024-03-07_12h23.33.037,Memory and Syntax,2023.2.3,Win32,59.88023952,,,,,353.4154,355.4139,o,1,355.4139,355.4141,,0,,,355.4142,355.4145,,355.4145,355.4146,,0,110,110,110,1,cvmt/test_items/t111.jpeg,o,0.9339,,,,,,,,,,,,,,,,,,,,,,,,,,,
,,115012,072,1,2024-03-07_12h23.33.037,Memory and Syntax,2023.2.3,Win32,59.88023952,,,,,355.4148,357.4143,n,0,357.4144,357.4146,,0,,,357.4147,357.4151,,357.4151,357.4152,,0,111,111,111,1,cvmt/test_items/t112.jpeg,o,1.057,,,,,,,,,,,,,,,,,,,,,,,,,,,
,,115012,072,1,2024-03-07_12h23.33.037,Memory and Syntax,2023.2.3,Win32,59.88023952,,,,,357.4154,359.4144,n,1,359.4144,359.4147,,0,,,359.4147,359.4151,,359.4152,359.4152,,0,112,112,112,1,cvmt/test_items/t113.jpeg,n,0.9425,,,,,,,,,,,,,,,,,,,,,,,,,,,
,,115012,072,1,2024-03-07_12h23.33.037,Memory and Syntax,2023.2.3,Win32,59.88023952,,,,,359.4155,361.4139,o,1,361.414,361.4142,,0,,,361.4142,361.4146,,361.4146,361.4147,,0,113,113,113,1,cvmt/test_items/t114.jpeg,o,0.8989,,,,,,,,,,,,,,,,,,,,,,,,,,,
,,115012,072,1,2024-03-07_12h23.33.037,Memory and Syntax,2023.2.3,Win32,59.88023952,,,,,361.415,363.4138,o,1,363.4138,363.414,,0,,,363.4141,363.4144,,363.4144,363.4145,,0,114,114,114,1,cvmt/test_items/t115.jpeg,o,0.8666,,,,,,,,,,,,,,,,,,,,,,,,,,,
,,115012,072,1,2024-03-07_12h23.33.037,Memory and Syntax,2023.2.3,Win32,59.88023952,,,,,363.4147,365.4139,o,1,365.414,365.4143,,0,,,365.4143,365.4148,,365.4148,365.4149,,0,115,115,115,1,cvmt/test_items/t116.jpeg,o,0.7803,,,,,,,,,,,,,,,,,,,,,,,,,,,
,,115012,072,1,2024-03-07_12h23.33.037,Memory and Syntax,2023.2.3,Win32,59.88023952,,,,,365.4153,367.4136,n,0,367.4137,367.4139,,0,,,367.4139,367.4143,,367.4143,367.4144,,0,116,116,116,1,cvmt/test_items/t117.jpeg,o,1.2558,,,,,,,,,,,,,,,,,,,,,,,,,,,
,,115012,072,1,2024-03-07_12h23.33.037,Memory and Syntax,2023.2.3,Win32,59.88023952,,,,,367.4146,369.4145,n,0,369.4145,369.4147,,0,,,369.4147,369.4152,,369.4152,369.4153,,0,117,117,117,1,cvmt/test_items/t118.jpeg,o,1.418,,,,,,,,,,,,,,,,,,,,,,,,,,,
,,115012,072,1,2024-03-07_12h23.33.037,Memory and Syntax,2023.2.3,Win32,59.88023952,,,,,369.4155,371.4137,o,1,371.4138,371.414,,0,,,371.414,371.4144,,371.4144,371.4145,,0,118,118,118,1,cvmt/test_items/t119.jpeg,o,0.5199,,,,,,,,,,,,,,,,,,,,,,,,,,,
,,115012,072,1,2024-03-07_12h23.33.037,Memory and Syntax,2023.2.3,Win32,59.88023952,,,,,371.4146,373.414,o,1,373.414,373.4141,,0,,,373.4142,373.4146,,373.4146,373.4147,,0,119,119,119,1,cvmt/test_items/t120.jpeg,o,0.6126,,,,,,,,,,,,,,,,,,,,,,,,,,,
,,115012,072,1,2024-03-07_12h23.33.037,Memory and Syntax,2023.2.3,Win32,59.88023952,,,,,373.4149,375.414,n,0,375.414,375.4143,,0,,,375.4143,375.4148,,375.4148,375.415,,0,120,120,120,1,cvmt/test_items/t121.jpeg,o,1.4385,,,,,,,,,,,,,,,,,,,,,,,,,,,
,,115012,072,1,2024-03-07_12h23.33.037,Memory and Syntax,2023.2.3,Win32,59.88023952,,,,,375.4155,377.414,o,1,377.4141,377.4143,,0,,,377.4143,377.4147,,377.4147,377.4147,,0,121,121,121,1,cvmt/test_items/t122.jpeg,o,0.9332,,,,,,,,,,,,,,,,,,,,,,,,,,,
,,115012,072,1,2024-03-07_12h23.33.037,Memory and Syntax,2023.2.3,Win32,59.88023952,,,,,377.4149,379.4145,n,1,379.4146,379.4148,,0,,,379.4148,379.4153,,379.4153,379.4153,,0,122,122,122,1,cvmt/test_items/t123.jpeg,n,0.8819,,,,,,,,,,,,,,,,,,,,,,,,,,,
,,115012,072,1,2024-03-07_12h23.33.037,Memory and Syntax,2023.2.3,Win32,59.88023952,,,,,379.4156,381.414,n,0,381.414,381.4142,,0,,,381.4142,381.4147,,381.4147,381.4148,,0,123,123,123,1,cvmt/test_items/t124.jpeg,o,1.2478,,,,,,,,,,,,,,,,,,,,,,,,,,,
,,115012,072,1,2024-03-07_12h23.33.037,Memory and Syntax,2023.2.3,Win32,59.88023952,,,,,381.4151,383.4139,o,1,383.4139,383.4142,,0,,,383.4142,383.4147,,383.4147,383.4147,,0,124,124,124,1,cvmt/test_items/t125.jpeg,o,0.6418,,,,,,,,,,,,,,,,,,,,,,,,,,,
,,115012,072,1,2024-03-07_12h23.33.037,Memory and Syntax,2023.2.3,Win32,59.88023952,,,,,383.415,385.4139,,0,385.4139,387.698,n,0,2.2733,,387.698,387.7142,,387.7143,387.7144,,0,125,125,125,1,cvmt/test_items/t126.jpeg,o,,,,,,,,,,,,,,,,,,,,,,,,,,,,
,,115012,072,1,2024-03-07_12h23.33.037,Memory and Syntax,2023.2.3,Win32,59.88023952,,,,,387.7146,389.7028,o,1,389.7028,389.7056,,0,,,389.7057,389.7061,,389.7061,389.7062,,0,126,126,126,1,cvmt/test_items/t127.jpeg,o,0.7993,,,,,,,,,,,,,,,,,,,,,,,,,,,
,,115012,072,1,2024-03-07_12h23.33.037,Memory and Syntax,2023.2.3,Win32,59.88023952,,,,,389.7064,391.7068,o,1,391.7069,391.7071,,0,,,391.7071,391.7074,,391.7074,391.7075,,0,127,127,127,1,cvmt/test_items/t128.jpeg,o,0.0006,,,,,,,,,,,,,,,,,,,,,,,,,,,
,,115012,072,1,2024-03-07_12h23.33.037,Memory and Syntax,2023.2.3,Win32,59.88023952,,,,,391.7076,393.6968,o,1,393.6969,393.6971,,0,,,393.6971,393.6974,,393.6975,393.6975,,0,128,128,128,1,cvmt/test_items/t129.jpeg,o,0.0313,,,,,,,,,,,,,,,,,,,,,,,,,,,
,,115012,072,1,2024-03-07_12h23.33.037,Memory and Syntax,2023.2.3,Win32,59.88023952,,,,,393.6977,395.697,o,1,395.6971,395.6973,,0,,,395.6975,395.6981,,395.6981,395.6982,,0,129,129,129,1,cvmt/test_items/t130.jpeg,o,0.1778,,,,,,,,,,,,,,,,,,,,,,,,,,,
,,115012,072,1,2024-03-07_12h23.33.037,Memory and Syntax,2023.2.3,Win32,59.88023952,,,,,395.6986,397.6975,o,0,397.6976,397.6978,,0,,,397.6978,397.6981,,397.6981,397.6981,,0,130,130,130,1,cvmt/test_items/t131.jpeg,n,0.5639,,,,,,,,,,,,,,,,,,,,,,,,,,,
,,115012,072,1,2024-03-07_12h23.33.037,Memory and Syntax,2023.2.3,Win32,59.88023952,,,,,397.6984,399.6916,n,0,399.6916,399.6919,,0,,,399.6919,399.6925,,399.6925,399.6926,,0,131,131,131,1,cvmt/test_items/t132.jpeg,o,0.5227,,,,,,,,,,,,,,,,,,,,,,,,,,,
,,115012,072,1,2024-03-07_12h23.33.037,Memory and Syntax,2023.2.3,Win32,59.88023952,,,,,399.6928,401.6969,n,0,401.697,401.6972,,0,,,401.6972,401.6976,,401.6976,401.6976,,0,132,132,132,1,cvmt/test_items/t133.jpeg,o,0.724,,,,,,,,,,,,,,,,,,,,,,,,,,,
,,115012,072,1,2024-03-07_12h23.33.037,Memory and Syntax,2023.2.3,Win32,59.88023952,,,,,401.6979,403.6965,o,1,403.6965,403.6967,,0,,,403.6968,403.6975,,403.6975,403.6976,,0,133,133,133,1,cvmt/test_items/t134.jpeg,o,0.8386,,,,,,,,,,,,,,,,,,,,,,,,,,,
,,115012,072,1,2024-03-07_12h23.33.037,Memory and Syntax,2023.2.3,Win32,59.88023952,,,,,403.6979,405.6969,n,0,405.6969,405.6971,,0,,,405.6971,405.6975,,405.6976,405.6976,,0,134,134,134,1,cvmt/test_items/t135.jpeg,o,1.0433,,,,,,,,,,,,,,,,,,,,,,,,,,,
,,115012,072,1,2024-03-07_12h23.33.037,Memory and Syntax,2023.2.3,Win32,59.88023952,,,,,,,,,,,,,,,,,,,,,,,,,,,,,,,,,,405.6983,405.6985,0.0002,405.7177,424.4937,space,18.1299,,424.5069,429.6141,5.2,5.1026,0,0,0,0,1,1,1,WOV,8B,Practiced the virtuoso many pieces.
,,115012,072,1,2024-03-07_12h23.33.037,Memory and Syntax,2023.2.3,Win32,59.88023952,,,,,,,,,,,,,,,,,,,,,,,,,,,,,,,,,,,,,,,,,,429.6146,434.5304,4,4.913,0,1,1,1,1,1,2,AS,6A,The rickety old boat sank.
,,115012,072,1,2024-03-07_12h23.33.037,Memory and Syntax,2023.2.3,Win32,59.88023952,,,,,,,,,,,,,,,,,,,,,,,,,,,,,,,,,,,,,,,,,,434.5307,440.0462,7,5.5127,0,2,2,2,1,1,3,WO,6A,The waiter set the table promptly.
,,115012,072,1,2024-03-07_12h23.33.037,Memory and Syntax,2023.2.3,Win32,59.88023952,,,,,,,,,,,,,,,,,,,,,,,,,,,,,,,,,,,,,,,,,,440.0466,448.3961,1,8.3471,0,3,3,3,1,1,4,control,12B,They anticipate that everybody you do will contact Megan.
,,115012,072,1,2024-03-07_12h23.33.037,Memory and Syntax,2023.2.3,Win32,59.88023952,,,,,,,,,,,,,,,,,,,,,,,,,,,,,,,,,,,,,,,,,,448.3965,451.4256,5.3,3.0262,0,4,4,4,1,1,5,ASV,11B,The cat moved himself away.
,,115012,072,1,2024-03-07_12h23.33.037,Memory and Syntax,2023.2.3,Win32,59.88023952,,,,,,,,,,,,,,,,,,,,,,,,,,,,,,,,,,,,,,,,,,451.426,454.9547,1.1,3.526,0,5,5,5,1,1,6,ASV,7B,She laughed herself at the dog.
,,115012,072,1,2024-03-07_12h23.33.037,Memory and Syntax,2023.2.3,Win32,59.88023952,,,,,,,,,,,,,,,,,,,,,,,,,,,,,,,,,,,,,,,,,,454.955,458.3792,4.9,3.421,0,6,6,6,1,1,7,AS,5A,The professor cried about the article.
,,115012,072,1,2024-03-07_12h23.33.037,Memory and Syntax,2023.2.3,Win32,59.88023952,,,,,,,,,,,,,,,,,,,,,,,,,,,,,,,,,,,,,,,,,,458.3797,461.596,5.5,3.2131,0,7,7,7,1,1,8,WO,5A,My sibling expected a good grade.
,,115012,072,1,2024-03-07_12h23.33.037,Memory and Syntax,2023.2.3,Win32,59.88023952,,,,,,,,,,,,,,,,,,,,,,,,,,,,,,,,,,,,,,,,,,461.5964,466.1293,1,4.5299,0,8,8,8,1,1,9,filler,1A,There has been a man considered violent.
,,115012,072,1,2024-03-07_12h23.33.037,Memory and Syntax,2023.2.3,Win32,59.88023952,,,,,,,,,,,,,,,,,,,,,,,,,,,,,,,,,,,,,,,,,,466.1298,469.9803,6.3,3.8485,0,9,9,9,1,1,10,AS,2A,Taylor subscribed to the channel.
,,115012,072,1,2024-03-07_12h23.33.037,Memory and Syntax,2023.2.3,Win32,59.88023952,,,,,,,,,,,,,,,,,,,,,,,,,,,,,,,,,,,,,,,,,,469.9807,474.8791,1,4.8952,0,10,10,10,1,1,11,control,10B,There might fossils seem to be several miles underground.
,,115012,072,1,2024-03-07_12h23.33.037,Memory and Syntax,2023.2.3,Win32,59.88023952,,,,,,,,,,,,,,,,,,,,,,,,,,,,,,,,,,,,,,,,,,474.8796,480.021,1.9,5.1391,0,11,11,11,1,1,12,ASV,8B,Esperanza sighed herself at the desk.
,,115012,072,1,2024-03-07_12h23.33.037,Memory and Syntax,2023.2.3,Win32,59.88023952,,,,,,,,,,,,,,,,,,,,,,,,,,,,,,,,,,,,,,,,,,480.0213,482.7626,1.6,2.7373,0,12,12,12,1,1,13,WOV,9B,Read we five pages each night.
,,115012,072,1,2024-03-07_12h23.33.037,Memory and Syntax,2023.2.3,Win32,59.88023952,,,,,,,,,,,,,,,,,,,,,,,,,,,,,,,,,,,,,,,,,,482.7631,486.3457,1.7,3.5789,0,13,13,13,1,1,14,WOV,7B,Frightened the eerie sound Seth.
,,115012,072,1,2024-03-07_12h23.33.037,Memory and Syntax,2023.2.3,Win32,59.88023952,,,,,,,,,,,,,,,,,,,,,,,,,,,,,,,,,,,,,,,,,,486.3461,489.9124,5.7,3.5622,0,14,14,14,1,1,15,filler,2A,"Arty is sick, and Mark is too."
,,115012,072,1,2024-03-07_12h23.33.037,Memory and Syntax,2023.2.3,Win32,59.88023952,,,,,,,,,,,,,,,,,,,,,,,,,,,,,,,,,,,,,,,,,,489.9128,493.9958,1,4.0798,0,15,15,15,1,1,16,ASV,9B,The prime minister confessed herself to bribery.
,,115012,072,1,2024-03-07_12h23.33.037,Memory and Syntax,2023.2.3,Win32,59.88023952,,,,,,,,,,,,,,,,,,,,,,,,,,,,,,,,,,,,,,,,,,493.9962,498.1454,5.5,4.1448,0,16,16,16,1,1,17,control,7B,Olivia told Gregory when to exonerate herself.
,,115012,072,1,2024-03-07_12h23.33.037,Memory and Syntax,2023.2.3,Win32,59.88023952,,,,,,,,,,,,,,,,,,,,,,,,,,,,,,,,,,,,,,,,,,498.1458,505.1455,4.2,6.994,0,17,17,17,1,1,18,control,11B,There are likely students to be in the library.
,,115012,072,1,2024-03-07_12h23.33.037,Memory and Syntax,2023.2.3,Win32,59.88023952,,,,,,,,,,,,,,,,,,,,,,,,,,,,,,,,,,,,,,,,,,505.146,509.7401,6.5,4.5916,0,18,18,18,1,1,19,filler,5A,I told Mandy who would win the election.
,,115012,072,1,2024-03-07_12h23.33.037,Memory and Syntax,2023.2.3,Win32,59.88023952,,,,,,,,,,,,,,,,,,,,,,,,,,,,,,,,,,,,,,,,,,509.7406,513.6145,3.5,3.8714,0,19,19,19,1,1,20,control,9B,We consider there three problems.
,,115012,072,1,2024-03-07_12h23.33.037,Memory and Syntax,2023.2.3,Win32,59.88023952,,,,,,,,,,,,,,,,,,,,,,,,,,,,,,,,,,,,,,,,,,513.6149,517.1782,1,3.5573,0,20,20,20,1,1,21,control,8B,She called Victor and yelled at.
,,115012,072,1,2024-03-07_12h23.33.037,Memory and Syntax,2023.2.3,Win32,59.88023952,,,,,,,,,,,,,,,,,,,,,,,,,,,,,,,,,,,,,,,,,,517.1787,520.1121,6,2.9261,0,21,21,21,1,1,22,WO,4A,The bully pushed every student.
,,115012,072,1,2024-03-07_12h23.33.037,Memory and Syntax,2023.2.3,Win32,59.88023952,,,,,,,,,,,,,,,,,,,,,,,,,,,,,,,,,,,,,,,,,,520.1124,522.5784,6,2.4608,0,22,22,22,1,1,23,WO,3A,Miguel baked delicious cupcakes.
,,115012,072,1,2024-03-07_12h23.33.037,Memory and Syntax,2023.2.3,Win32,59.88023952,,,,,,,,,,,,,,,,,,,,,,,,,,,,,,,,,,,,,,,,,,522.5787,525.2046,6.9,2.6239,0,23,23,23,1,1,24,WO,1A,Abby answered the question.
,,115012,072,1,2024-03-07_12h23.33.037,Memory and Syntax,2023.2.3,Win32,59.88023952,,,,,,,,,,,,,,,,,,,,,,,,,,,,,,,,,,,,,,,,,,525.205,527.9311,6.9,2.7232,0,24,24,24,1,1,25,filler,3A,Brittany attempted to touch the porcupine.
,,115012,072,1,2024-03-07_12h23.33.037,Memory and Syntax,2023.2.3,Win32,59.88023952,,,,,,,,,,,,,,,,,,,,,,,,,,,,,,,,,,,,,,,,,,527.9316,530.4233,6.9,2.4895,0,25,25,25,1,1,26,AS,3A,Gracie stayed by the window.
,,115012,072,1,2024-03-07_12h23.33.037,Memory and Syntax,2023.2.3,Win32,59.88023952,,,,,,,,,,,,,,,,,,,,,,,,,,,,,,,,,,,,,,,,,,530.4236,534.5616,1,4.1349,0,26,26,26,1,1,27,WOV,11B,Wrote she her boyfriend a poem.
,,115012,072,1,2024-03-07_12h23.33.037,Memory and Syntax,2023.2.3,Win32,59.88023952,,,,,,,,,,,,,,,,,,,,,,,,,,,,,,,,,,,,,,,,,,534.5621,538.8953,1.1,4.3265,0,27,27,27,1,1,28,WOV,12B,Watched Lily a movie.
,,115012,072,1,2024-03-07_12h23.33.037,Memory and Syntax,2023.2.3,Win32,59.88023952,,,,,,,,,,,,,,,,,,,,,,,,,,,,,,,,,,,,,,,,,,538.8957,542.0453,2.9,3.1424,0,28,28,28,1,1,29,WO,2A,Jackie won the close race.
,,115012,072,1,2024-03-07_12h23.33.037,Memory and Syntax,2023.2.3,Win32,59.88023952,,,,,,,,,,,,,,,,,,,,,,,,,,,,,,,,,,,,,,,,,,542.0457,545.0953,6.7,3.0477,0,29,29,29,1,1,30,AS,4A,Tomas drank from the water pitcher.
,,115012,072,1,2024-03-07_12h23.33.037,Memory and Syntax,2023.2.3,Win32,59.88023952,,,,,,,,,,,,,,,,,,,,,,,,,,,,,,,,,,,,,,,,,,545.0957,548.0327,1.3,2.9346,0,30,30,30,1,1,31,WOV,10B,Kissed Kareem his boyfriend.
,,115012,072,1,2024-03-07_12h23.33.037,Memory and Syntax,2023.2.3,Win32,59.88023952,,,,,,,,,,,,,,,,,,,,,,,,,,,,,,,,,,,,,,,,,,548.0329,551.5284,3.6,3.4935,0,31,31,31,1,1,32,ASV,10B,The children quieted themselves.
,,115012,072,1,2024-03-07_12h23.33.037,Memory and Syntax,2023.2.3,Win32,59.88023952,,,,,,,,,,,,,,,,,,,,,,,,,,,,,,,,,,,,,,,,,,551.5287,554.278,6,2.7428,0,32,32,32,1,1,33,AS,1A,They fidgeted in their chairs.
,,115012,072,1,2024-03-07_12h23.33.037,Memory and Syntax,2023.2.3,Win32,59.88023952,,,,,,,,,,,,,,,,,,,,,,,,,,,,,,,,,,,,,,,,,,554.2784,558.8943,5.2,4.6103,0,33,33,33,1,1,34,filler,4A,It seems to him that Kim solved the problem.
,,115012,072,1,2024-03-07_12h23.33.037,Memory and Syntax,2023.2.3,Win32,59.88023952,,,,,,,,,,,,,,,,,,,,,,,,,,,,,,,,,,,,,,,,,,558.8948,561.6446,4.5,2.7478,0,34,34,34,1,1,35,ASV,12B,The swimmers shaved themselves.