load.started,load.stopped,Sona ID,Participant ID,Session,date,expName,psychopyVersion,OS,frameRate,cvmtInstr.started,cvmtInstr.stopped,cvmtTaskInstr.started,cvmtTaskInstr.stopped,presentDesign.started,presentDesign.stopped,cvmt_key_resp.keys,cvmt_key_resp.corr,cvmtNoResp.started,cvmtNoResp.stopped,cvmt_key_resp2.keys,cvmt_key_resp2.corr,cvmt_key_resp2.rt,cvmt_key_resp2.duration,cvmtSampleFB.started,cvmtSampleFB.stopped,key_resp_15.keys,cvmtSampleFBFinal.started,cvmtSampleFBFinal.stopped,cvmt_final_samp_fb_key_resp.keys,cvmtTrials.thisRepN,cvmtTrials.thisTrialN,cvmtTrials.thisN,cvmtTrials.thisIndex,cvmtTrials.ran,cvmt_design,old_or_new,key_resp_15.rt,key_resp_15.duration,cvmt_key_resp.rt,cvmt_key_resp.duration,cvmt_final_samp_fb_key_resp.rt,cvmt_final_samp_fb_key_resp.duration,cvmtDelay.started,cvmtDelay.stopped,cvmt timer,engAJT_instr.started,engAJT_instr.stopped,start_ajt.keys,start_ajt.rt,start_ajt.duration,engAJT.started,engAJT.stopped,acceptability.response,acceptability.rt,engAJT_trials.thisRepN,engAJT_trials.thisTrialN,engAJT_trials.thisN,engAJT_trials.thisIndex,engAJT_trials.ran,ajt_list,list_position,condition,item,testSent
1E-04,0.2408,115478,088,1,2024-03-13_15h04.01.259,Memory and Syntax,2023.2.3,MacIntel,60.0024001,,,,,,,,,,,,,,,,,,,,,,,,,,,,,,,,,,,,,,,,,,,,,,,,,,,,,,,
,,115478,088,1,2024-03-13_15h04.01.259,Memory and Syntax,2023.2.3,MacIntel,60.0024001,0.2564,9.0414,9.05,9.9586,10.0021,11.962,,0,11.9631,25.7804,n,1,13.7939,,25.7813,25.7914,,25.7918,25.7932,,0,0,0,0,1,cvmt/sample/s1.jpg,n,,,,,,,,,,,,,,,,,,,,,,,,,,,,
,,115478,088,1,2024-03-13_15h04.01.259,Memory and Syntax,2023.2.3,MacIntel,60.0024001,,,,,25.7947,27.7951,,0,27.7965,28.6931,o,0,0.8816,,28.6935,37.5615,c,37.5623,37.5655,,0,1,1,1,1,cvmt/sample/s2.jpg,n,8.855,,,,,,,,,,,,,,,,,,,,,,,,,,,
,,115478,088,1,2024-03-13_15h04.01.259,Memory and Syntax,2023.2.3,MacIntel,60.0024001,,,,,37.5809,39.5761,o,1,39.5775,39.5818,,0,,,39.5826,39.587,,39.5878,39.5891,,0,2,2,2,1,cvmt/sample/s3.jpg,o,,,1.899,,,,,,,,,,,,,,,,,,,,,,,,,
,,115478,088,1,2024-03-13_15h04.01.259,Memory and Syntax,2023.2.3,MacIntel,60.0024001,,,,,39.5914,41.5966,n,1,41.5977,41.5996,,0,,,41.6005,41.6037,,41.6044,41.6058,,0,3,3,3,1,cvmt/sample/s4.jpg,n,,,0.949,,,,,,,,,,,,,,,,,,,,,,,,,
,,115478,088,1,2024-03-13_15h04.01.259,Memory and Syntax,2023.2.3,MacIntel,60.0024001,,,,,41.608,43.6098,o,0,43.6112,43.6134,,0,,,43.6141,47.027,c,47.028,47.0301,,0,4,4,4,1,cvmt/sample/s5.jpg,n,3.3935,,1.398,,,,,,,,,,,,,,,,,,,,,,,,,
,,115478,088,1,2024-03-13_15h04.01.259,Memory and Syntax,2023.2.3,MacIntel,60.0024001,,,,,47.045,49.0434,,0,49.0448,49.2601,n,1,0.1981,,49.2614,49.2653,,49.2662,49.2692,,0,5,5,5,1,cvmt/sample/s6.jpg,n,,,,,,,,,,,,,,,,,,,,,,,,,,,,
,,115478,088,1,2024-03-13_15h04.01.259,Memory and Syntax,2023.2.3,MacIntel,60.0024001,,,,,49.2715,51.2604,n,0,51.2612,51.2631,,0,,,51.2653,53.2941,c,53.2955,53.2975,,0,6,6,6,1,cvmt/sample/s7.jpg,o,2.0128,,1.0001,,,,,,,,,,,,,,,,,,,,,,,,,
,,115478,088,1,2024-03-13_15h04.01.259,Memory and Syntax,2023.2.3,MacIntel,60.0024001,,,,,53.3001,55.2941,o,0,55.2955,55.299,,0,,,55.3007,55.9295,c,55.9309,55.9329,,0,7,7,7,1,cvmt/sample/s8.jpg,n,0.6039,,1.2167,,,,,,,,,,,,,,,,,,,,,,,,,
,,115478,088,1,2024-03-13_15h04.01.259,Memory and Syntax,2023.2.3,MacIntel,60.0024001,,,,,55.9369,57.9285,n,1,57.9296,57.9329,,0,,,57.9336,57.9376,,57.9384,57.9398,,0,8,8,8,1,cvmt/sample/s9.jpg,n,,,1.4175,,,,,,,,,,,,,,,,,,,,,,,,,
,,115478,088,1,2024-03-13_15h04.01.259,Memory and Syntax,2023.2.3,MacIntel,60.0024001,,,,,57.942,59.9454,n,1,59.9465,59.9485,,0,,,59.9492,59.951,,59.9517,59.9546,,0,9,9,9,1,cvmt/sample/s10.jpg,n,,,0.7138,,,,,,,,,,,,,,,,,,,,,,,,,
,,115478,088,1,2024-03-13_15h04.01.259,Memory and Syntax,2023.2.3,MacIntel,60.0024001,,,,,59.9569,61.9622,o,1,61.9634,61.9653,,0,,,61.9661,61.9678,,61.9685,69.4791,r,0,10,10,10,1,cvmt/sample/s11.jpg,o,,,1.2494,,7.4844,,,,,,,,,,,,,,,,,,,,,,,
,,115478,088,1,2024-03-13_15h04.01.259,Memory and Syntax,2023.2.3,MacIntel,60.0024001,,,,,69.4953,71.4964,o,0,71.4976,71.5021,,0,,,71.5028,76.3117,c,76.3128,76.3157,,1,0,11,0,1,cvmt/sample/s1.jpg,n,4.7915,,1.3487,,,,,,,,,,,,,,,,,,,,,,,,,
,,115478,088,1,2024-03-13_15h04.01.259,Memory and Syntax,2023.2.3,MacIntel,60.0024001,,,,,76.3316,78.33,o,0,78.3311,78.3344,,0,,,78.335,85.4142,c,85.4153,85.4172,,1,1,12,1,1,cvmt/sample/s2.jpg,n,7.0629,,1.7428,,,,,,,,,,,,,,,,,,,,,,,,,
,,115478,088,1,2024-03-13_15h04.01.259,Memory and Syntax,2023.2.3,MacIntel,60.0024001,,,,,85.433,87.4294,,0,87.4308,87.434,,0,,,87.4362,91.4109,c,91.412,91.4137,,1,2,13,2,1,cvmt/sample/s3.jpg,o,3.9627,,,,,,,,,,,,,,,,,,,,,,,,,,,
,,115478,088,1,2024-03-13_15h04.01.259,Memory and Syntax,2023.2.3,MacIntel,60.0024001,,,,,91.4286,93.4283,,0,93.4289,106.6625,n,1,13.2182,,106.664,106.6687,,106.6696,106.6711,,1,3,14,3,1,cvmt/sample/s4.jpg,n,,,,,,,,,,,,,,,,,,,,,,,,,,,,
,,115478,088,1,2024-03-13_15h04.01.259,Memory and Syntax,2023.2.3,MacIntel,60.0024001,,,,,106.6734,108.6652,o,0,108.6666,108.6703,,0,,,108.6709,108.6741,,108.6748,108.6763,,1,4,15,4,1,cvmt/sample/s5.jpg,n,,,0.0005,,,,,,,,,,,,,,,,,,,,,,,,,
,,115478,088,1,2024-03-13_15h04.01.259,Memory and Syntax,2023.2.3,MacIntel,60.0024001,,,,,108.6784,110.679,n,1,110.6805,110.6823,,0,,,110.6829,110.6846,,110.6863,110.6883,,1,5,16,5,1,cvmt/sample/s6.jpg,n,,,1.3831,,,,,,,,,,,,,,,,,,,,,,,,,
,,115478,088,1,2024-03-13_15h04.01.259,Memory and Syntax,2023.2.3,MacIntel,60.0024001,,,,,110.6905,112.6807,o,1,112.6817,112.6836,,0,,,112.6843,112.6877,,112.6886,112.6899,,1,6,17,6,1,cvmt/sample/s7.jpg,o,,,1.2234,,,,,,,,,,,,,,,,,,,,,,,,,
,,115478,088,1,2024-03-13_15h04.01.259,Memory and Syntax,2023.2.3,MacIntel,60.0024001,,,,,112.6922,114.6978,o,0,114.6988,114.7008,,0,,,114.7015,117.479,c,117.4801,117.4818,,1,7,18,7,1,cvmt/sample/s8.jpg,n,2.7583,,1.2204,,,,,,,,,,,,,,,,,,,,,,,,,
,,115478,088,1,2024-03-13_15h04.01.259,Memory and Syntax,2023.2.3,MacIntel,60.0024001,,,,,117.4971,119.4959,,0,119.4971,119.5975,o,0,0.085,,119.5989,142.2818,c,142.283,142.2847,,1,8,19,8,1,cvmt/sample/s9.jpg,n,22.6672,,,,,,,,,,,,,,,,,,,,,,,,,,,
,,115478,088,1,2024-03-13_15h04.01.259,Memory and Syntax,2023.2.3,MacIntel,60.0024001,,,,,142.3004,144.2965,,0,144.2977,150.6971,n,1,6.3854,,150.6984,150.7128,,150.7135,150.7149,,1,9,20,9,1,cvmt/sample/s10.jpg,n,,,,,,,,,,,,,,,,,,,,,,,,,,,,
,,115478,088,1,2024-03-13_15h04.01.259,Memory and Syntax,2023.2.3,MacIntel,60.0024001,,,,,150.7167,152.7157,,0,152.7168,155.2496,n,0,2.5146,,155.2507,158.8491,c,158.8503,163.201,r,1,10,21,10,1,cvmt/sample/s11.jpg,o,3.5662,,,,4.3367,,,,,,,,,,,,,,,,,,,,,,,
,,115478,088,1,2024-03-13_15h04.01.259,Memory and Syntax,2023.2.3,MacIntel,60.0024001,,,,,163.2178,165.2181,o,0,165.2194,165.2227,,0,,,165.2238,172.2646,c,172.2658,172.269,,2,0,22,0,1,cvmt/sample/s1.jpg,n,7.0212,,1.837,,,,,,,,,,,,,,,,,,,,,,,,,
,,115478,088,1,2024-03-13_15h04.01.259,Memory and Syntax,2023.2.3,MacIntel,60.0024001,,,,,172.2858,174.2815,n,1,174.2828,174.2865,,0,,,174.2874,174.2916,,174.2922,174.2937,,2,1,23,1,1,cvmt/sample/s2.jpg,n,,,1.9629,,,,,,,,,,,,,,,,,,,,,,,,,
,,115478,088,1,2024-03-13_15h04.01.259,Memory and Syntax,2023.2.3,MacIntel,60.0024001,,,,,174.2958,176.2981,,0,176.2993,176.3985,n,0,0.0902,,176.3993,178.3141,c,178.3153,178.3169,,2,2,24,2,1,cvmt/sample/s3.jpg,o,1.885,,,,,,,,,,,,,,,,,,,,,,,,,,,
,,115478,088,1,2024-03-13_15h04.01.259,Memory and Syntax,2023.2.3,MacIntel,60.0024001,,,,,178.3197,180.3178,n,1,180.3189,180.3221,,0,,,180.3229,180.3269,,180.3276,180.329,,2,3,25,3,1,cvmt/sample/s4.jpg,n,,,1.2318,,,,,,,,,,,,,,,,,,,,,,,,,
,,115478,088,1,2024-03-13_15h04.01.259,Memory and Syntax,2023.2.3,MacIntel,60.0024001,,,,,180.3311,182.3346,n,1,182.336,182.3382,,0,,,182.339,182.3407,,182.3413,182.3435,,2,4,26,4,1,cvmt/sample/s5.jpg,n,,,0.8,,,,,,,,,,,,,,,,,,,,,,,,,
,,115478,088,1,2024-03-13_15h04.01.259,Memory and Syntax,2023.2.3,MacIntel,60.0024001,,,,,182.3464,184.3488,n,1,184.3497,184.3516,,0,,,184.3536,184.3556,,184.3562,184.3576,,2,5,27,5,1,cvmt/sample/s6.jpg,n,,,0.6689,,,,,,,,,,,,,,,,,,,,,,,,,
,,115478,088,1,2024-03-13_15h04.01.259,Memory and Syntax,2023.2.3,MacIntel,60.0024001,,,,,184.3598,186.3506,o,1,186.3516,186.3535,,0,,,186.3542,186.3573,,186.358,186.3594,,2,6,28,6,1,cvmt/sample/s7.jpg,o,,,0.7288,,,,,,,,,,,,,,,,,,,,,,,,,
,,115478,088,1,2024-03-13_15h04.01.259,Memory and Syntax,2023.2.3,MacIntel,60.0024001,,,,,186.3616,188.3681,n,1,188.3692,188.371,,0,,,188.3718,188.3733,,188.3741,188.3769,,2,7,29,7,1,cvmt/sample/s8.jpg,n,,,1.1689,,,,,,,,,,,,,,,,,,,,,,,,,
,,115478,088,1,2024-03-13_15h04.01.259,Memory and Syntax,2023.2.3,MacIntel,60.0024001,,,,,188.3791,190.3845,n,1,190.3856,190.3875,,0,,,190.3882,190.3915,,190.3924,190.3939,,2,8,30,8,1,cvmt/sample/s9.jpg,n,,,1.7919,,,,,,,,,,,,,,,,,,,,,,,,,
,,115478,088,1,2024-03-13_15h04.01.259,Memory and Syntax,2023.2.3,MacIntel,60.0024001,,,,,190.396,192.3995,n,1,192.4007,192.4028,,0,,,192.4035,192.4067,,192.4075,192.4092,,2,9,31,9,1,cvmt/sample/s10.jpg,n,,,0.8823,,,,,,,,,,,,,,,,,,,,,,,,,
,,115478,088,1,2024-03-13_15h04.01.259,Memory and Syntax,2023.2.3,MacIntel,60.0024001,,,,,192.4114,194.416,o,1,194.4173,194.4194,,0,,,194.4202,194.4233,,194.4242,202.6125,c,2,10,32,10,1,cvmt/sample/s11.jpg,o,,,0.7675,,8.152,,,,,,,,,,,,,,,,,,,,,,,
,,115478,088,1,2024-03-13_15h04.01.259,Memory and Syntax,2023.2.3,MacIntel,60.0024001,,,202.6155,215.6336,215.66,217.6499,n,1,217.65,217.6526,,0,,,217.6528,217.6532,,217.6532,217.6544,,0,0,0,0,1,cvmt/test_items/t1.jpeg,n,,,0.8075,,,,,,,,,,,,,,,,,,,,,,,,,
,,115478,088,1,2024-03-13_15h04.01.259,Memory and Syntax,2023.2.3,MacIntel,60.0024001,,,,,217.6547,219.6502,n,1,219.6503,219.6506,,0,,,219.6506,219.6514,,219.6514,219.6515,,0,1,1,1,1,cvmt/test_items/t2.jpeg,n,,,0.6924,,,,,,,,,,,,,,,,,,,,,,,,,
,,115478,088,1,2024-03-13_15h04.01.259,Memory and Syntax,2023.2.3,MacIntel,60.0024001,,,,,219.6518,221.6498,n,0,221.6499,221.6502,,0,,,221.6502,221.6508,,221.6509,221.6509,,0,2,2,2,1,cvmt/test_items/t3.jpeg,o,,,0.9949,,,,,,,,,,,,,,,,,,,,,,,,,
,,115478,088,1,2024-03-13_15h04.01.259,Memory and Syntax,2023.2.3,MacIntel,60.0024001,,,,,221.6513,223.6498,n,0,223.6499,223.6501,,0,,,223.6501,223.6508,,223.6508,223.6508,,0,3,3,3,1,cvmt/test_items/t4.jpeg,o,,,1.1637,,,,,,,,,,,,,,,,,,,,,,,,,
,,115478,088,1,2024-03-13_15h04.01.259,Memory and Syntax,2023.2.3,MacIntel,60.0024001,,,,,223.6512,225.6497,n,0,225.6497,225.6499,,0,,,225.6502,225.6509,,225.6509,225.6512,,0,4,4,4,1,cvmt/test_items/t5.jpeg,o,,,0.5324,,,,,,,,,,,,,,,,,,,,,,,,,
,,115478,088,1,2024-03-13_15h04.01.259,Memory and Syntax,2023.2.3,MacIntel,60.0024001,,,,,225.6515,227.6514,n,0,227.6516,227.6517,,0,,,227.6518,227.6523,,227.6523,227.6524,,0,5,5,5,1,cvmt/test_items/t6.jpeg,o,,,0.7977,,,,,,,,,,,,,,,,,,,,,,,,,
,,115478,088,1,2024-03-13_15h04.01.259,Memory and Syntax,2023.2.3,MacIntel,60.0024001,,,,,227.6526,229.6492,n,0,229.6493,229.6494,,0,,,229.6496,229.6501,,229.6501,229.6503,,0,6,6,6,1,cvmt/test_items/t7.jpeg,o,,,0.612,,,,,,,,,,,,,,,,,,,,,,,,,
,,115478,088,1,2024-03-13_15h04.01.259,Memory and Syntax,2023.2.3,MacIntel,60.0024001,,,,,229.6505,231.6492,n,0,231.6493,231.6495,,0,,,231.6495,231.65,,231.65,231.6501,,0,7,7,7,1,cvmt/test_items/t8.jpeg,o,,,0.428,,,,,,,,,,,,,,,,,,,,,,,,,
,,115478,088,1,2024-03-13_15h04.01.259,Memory and Syntax,2023.2.3,MacIntel,60.0024001,,,,,231.6504,233.6511,n,0,233.6512,233.6514,,0,,,233.6514,233.6523,,233.6523,233.6524,,0,8,8,8,1,cvmt/test_items/t9.jpeg,o,,,0.5783,,,,,,,,,,,,,,,,,,,,,,,,,
,,115478,088,1,2024-03-13_15h04.01.259,Memory and Syntax,2023.2.3,MacIntel,60.0024001,,,,,233.6527,235.6486,n,0,235.6487,235.6489,,0,,,235.6489,235.6496,,235.6496,235.6497,,0,9,9,9,1,cvmt/test_items/t10.jpeg,o,,,0.8086,,,,,,,,,,,,,,,,,,,,,,,,,
,,115478,088,1,2024-03-13_15h04.01.259,Memory and Syntax,2023.2.3,MacIntel,60.0024001,,,,,235.6502,237.6482,n,1,237.6482,237.6487,,0,,,237.6487,237.6495,,237.6495,237.6496,,0,10,10,10,1,cvmt/test_items/t11.jpeg,n,,,0.643,,,,,,,,,,,,,,,,,,,,,,,,,
,,115478,088,1,2024-03-13_15h04.01.259,Memory and Syntax,2023.2.3,MacIntel,60.0024001,,,,,237.6499,239.6492,n,0,239.6493,239.6496,,0,,,239.6496,239.6501,,239.6501,239.6504,,0,11,11,11,1,cvmt/test_items/t12.jpeg,o,,,0.5136,,,,,,,,,,,,,,,,,,,,,,,,,
,,115478,088,1,2024-03-13_15h04.01.259,Memory and Syntax,2023.2.3,MacIntel,60.0024001,,,,,239.6507,241.6525,o,1,241.6526,241.6528,,0,,,241.6529,241.6536,,241.6537,241.6538,,0,12,12,12,1,cvmt/test_items/t13.jpeg,o,,,1.047,,,,,,,,,,,,,,,,,,,,,,,,,
,,115478,088,1,2024-03-13_15h04.01.259,Memory and Syntax,2023.2.3,MacIntel,60.0024001,,,,,241.6541,243.6524,n,0,243.6526,243.6528,,0,,,243.6528,243.6533,,243.6535,243.6535,,0,13,13,13,1,cvmt/test_items/t14.jpeg,o,,,0.8312,,,,,,,,,,,,,,,,,,,,,,,,,
,,115478,088,1,2024-03-13_15h04.01.259,Memory and Syntax,2023.2.3,MacIntel,60.0024001,,,,,243.6539,245.6494,o,1,245.6495,245.6498,,0,,,245.6498,245.6503,,245.6503,245.6506,,0,14,14,14,1,cvmt/test_items/t15.jpeg,o,,,0.7906,,,,,,,,,,,,,,,,,,,,,,,,,
,,115478,088,1,2024-03-13_15h04.01.259,Memory and Syntax,2023.2.3,MacIntel,60.0024001,,,,,245.6508,247.6523,o,1,247.6524,247.6526,,0,,,247.6526,247.6533,,247.6533,247.6535,,0,15,15,15,1,cvmt/test_items/t16.jpeg,o,,,1.2327,,,,,,,,,,,,,,,,,,,,,,,,,
,,115478,088,1,2024-03-13_15h04.01.259,Memory and Syntax,2023.2.3,MacIntel,60.0024001,,,,,247.6539,249.6502,n,0,249.6502,249.6505,,0,,,249.6505,249.6511,,249.6511,249.6513,,0,16,16,16,1,cvmt/test_items/t17.jpeg,o,,,1.1112,,,,,,,,,,,,,,,,,,,,,,,,,
,,115478,088,1,2024-03-13_15h04.01.259,Memory and Syntax,2023.2.3,MacIntel,60.0024001,,,,,249.6516,251.6521,n,0,251.6522,251.6525,,0,,,251.6525,251.653,,251.653,251.6531,,0,17,17,17,1,cvmt/test_items/t18.jpeg,o,,,0.9149,,,,,,,,,,,,,,,,,,,,,,,,,
,,115478,088,1,2024-03-13_15h04.01.259,Memory and Syntax,2023.2.3,MacIntel,60.0024001,,,,,251.6534,253.6501,n,1,253.6502,253.6504,,0,,,253.6505,253.6513,,253.6514,253.6514,,0,18,18,18,1,cvmt/test_items/t19.jpeg,n,,,0.6472,,,,,,,,,,,,,,,,,,,,,,,,,
,,115478,088,1,2024-03-13_15h04.01.259,Memory and Syntax,2023.2.3,MacIntel,60.0024001,,,,,253.6518,255.6499,n,0,255.65,255.6504,,0,,,255.6504,255.6508,,255.6509,255.651,,0,19,19,19,1,cvmt/test_items/t20.jpeg,o,,,1.2524,,,,,,,,,,,,,,,,,,,,,,,,,
,,115478,088,1,2024-03-13_15h04.01.259,Memory and Syntax,2023.2.3,MacIntel,60.0024001,,,,,255.6514,257.6509,n,0,257.651,257.6512,,0,,,257.6512,257.6518,,257.6519,257.6519,,0,20,20,20,1,cvmt/test_items/t21.jpeg,o,,,0.9133,,,,,,,,,,,,,,,,,,,,,,,,,
,,115478,088,1,2024-03-13_15h04.01.259,Memory and Syntax,2023.2.3,MacIntel,60.0024001,,,,,257.6524,259.6489,o,1,259.6489,259.6491,,0,,,259.6491,259.6496,,259.6496,259.6496,,0,21,21,21,1,cvmt/test_items/t22.jpeg,o,,,1.0949,,,,,,,,,,,,,,,,,,,,,,,,,
,,115478,088,1,2024-03-13_15h04.01.259,Memory and Syntax,2023.2.3,MacIntel,60.0024001,,,,,259.6498,261.6512,o,0,261.6513,261.6515,,0,,,261.6516,261.6522,,261.6523,261.6523,,0,22,22,22,1,cvmt/test_items/t23.jpeg,n,,,1.2119,,,,,,,,,,,,,,,,,,,,,,,,,
,,115478,088,1,2024-03-13_15h04.01.259,Memory and Syntax,2023.2.3,MacIntel,60.0024001,,,,,261.6527,263.6516,n,1,263.6517,263.652,,0,,,263.6521,263.6526,,263.6526,263.6527,,0,23,23,23,1,cvmt/test_items/t24.jpeg,n,,,1.186,,,,,,,,,,,,,,,,,,,,,,,,,
,,115478,088,1,2024-03-13_15h04.01.259,Memory and Syntax,2023.2.3,MacIntel,60.0024001,,,,,263.6529,265.6508,,0,265.651,281.0374,n,0,15.368,,281.0375,281.0505,,281.0505,281.0506,,0,24,24,24,1,cvmt/test_items/t25.jpeg,o,,,,,,,,,,,,,,,,,,,,,,,,,,,,
,,115478,088,1,2024-03-13_15h04.01.259,Memory and Syntax,2023.2.3,MacIntel,60.0024001,,,,,281.0508,283.0519,n,1,283.052,283.0548,,0,,,283.0548,283.0554,,283.0554,283.0554,,0,25,25,25,1,cvmt/test_items/t26.jpeg,n,,,0.9498,,,,,,,,,,,,,,,,,,,,,,,,,
,,115478,088,1,2024-03-13_15h04.01.259,Memory and Syntax,2023.2.3,MacIntel,60.0024001,,,,,283.0556,285.0531,n,0,285.0533,285.0534,,0,,,285.0535,285.0543,,285.0543,285.0544,,0,26,26,26,1,cvmt/test_items/t27.jpeg,o,,,0.7807,,,,,,,,,,,,,,,,,,,,,,,,,
,,115478,088,1,2024-03-13_15h04.01.259,Memory and Syntax,2023.2.3,MacIntel,60.0024001,,,,,285.0548,287.0511,n,1,287.0511,287.0514,,0,,,287.0515,287.0521,,287.0521,287.0522,,0,27,27,27,1,cvmt/test_items/t28.jpeg,n,,,0.8148,,,,,,,,,,,,,,,,,,,,,,,,,
,,115478,088,1,2024-03-13_15h04.01.259,Memory and Syntax,2023.2.3,MacIntel,60.0024001,,,,,287.0525,289.0511,n,1,289.0512,289.0515,,0,,,289.0516,289.0524,,289.0524,289.0526,,0,28,28,28,1,cvmt/test_items/t29.jpeg,n,,,0.6852,,,,,,,,,,,,,,,,,,,,,,,,,
,,115478,088,1,2024-03-13_15h04.01.259,Memory and Syntax,2023.2.3,MacIntel,60.0024001,,,,,289.0529,291.0538,n,0,291.054,291.0542,,0,,,291.0542,291.0549,,291.0549,291.055,,0,29,29,29,1,cvmt/test_items/t30.jpeg,o,,,0.5283,,,,,,,,,,,,,,,,,,,,,,,,,
,,115478,088,1,2024-03-13_15h04.01.259,Memory and Syntax,2023.2.3,MacIntel,60.0024001,,,,,291.0554,293.0508,n,0,293.0508,293.0512,,0,,,293.0512,293.0521,,293.0521,293.0522,,0,30,30,30,1,cvmt/test_items/t31.jpeg,o,,,0.5896,,,,,,,,,,,,,,,,,,,,,,,,,
,,115478,088,1,2024-03-13_15h04.01.259,Memory and Syntax,2023.2.3,MacIntel,60.0024001,,,,,293.0526,295.0524,n,1,295.0524,295.0527,,0,,,295.0528,295.0532,,295.0534,295.0535,,0,31,31,31,1,cvmt/test_items/t32.jpeg,n,,,0.5955,,,,,,,,,,,,,,,,,,,,,,,,,
,,115478,088,1,2024-03-13_15h04.01.259,Memory and Syntax,2023.2.3,MacIntel,60.0024001,,,,,295.0538,297.0518,n,1,297.0518,297.0521,,0,,,297.0524,297.0529,,297.0529,297.053,,0,32,32,32,1,cvmt/test_items/t33.jpeg,n,,,0.597,,,,,,,,,,,,,,,,,,,,,,,,,
,,115478,088,1,2024-03-13_15h04.01.259,Memory and Syntax,2023.2.3,MacIntel,60.0024001,,,,,297.0533,299.0511,n,0,299.0511,299.0514,,0,,,299.0515,299.0521,,299.0521,299.0523,,0,33,33,33,1,cvmt/test_items/t34.jpeg,o,,,0.5292,,,,,,,,,,,,,,,,,,,,,,,,,
,,115478,088,1,2024-03-13_15h04.01.259,Memory and Syntax,2023.2.3,MacIntel,60.0024001,,,,,299.0526,301.0554,n,1,301.0555,301.0558,,0,,,301.0558,301.0566,,301.0566,301.0567,,0,34,34,34,1,cvmt/test_items/t35.jpeg,n,,,1.2647,,,,,,,,,,,,,,,,,,,,,,,,,
,,115478,088,1,2024-03-13_15h04.01.259,Memory and Syntax,2023.2.3,MacIntel,60.0024001,,,,,301.0571,303.0544,n,0,303.0544,303.0547,,0,,,303.0547,303.0555,,303.0555,303.0556,,0,35,35,35,1,cvmt/test_items/t36.jpeg,o,,,0.7742,,,,,,,,,,,,,,,,,,,,,,,,,
,,115478,088,1,2024-03-13_15h04.01.259,Memory and Syntax,2023.2.3,MacIntel,60.0024001,,,,,303.056,305.0527,n,1,305.0527,305.053,,0,,,305.053,305.0536,,305.0537,305.0538,,0,36,36,36,1,cvmt/test_items/t37.jpeg,n,,,1.0275,,,,,,,,,,,,,,,,,,,,,,,,,
,,115478,088,1,2024-03-13_15h04.01.259,Memory and Syntax,2023.2.3,MacIntel,60.0024001,,,,,305.0541,307.0552,n,0,307.0552,307.0555,,0,,,307.0555,307.0562,,307.0563,307.0565,,0,37,37,37,1,cvmt/test_items/t38.jpeg,o,,,1.158,,,,,,,,,,,,,,,,,,,,,,,,,
,,115478,088,1,2024-03-13_15h04.01.259,Memory and Syntax,2023.2.3,MacIntel,60.0024001,,,,,307.0568,309.0518,n,1,309.0519,309.0522,,0,,,309.0523,309.0528,,309.0528,309.053,,0,38,38,38,1,cvmt/test_items/t39.jpeg,n,,,0.7025,,,,,,,,,,,,,,,,,,,,,,,,,
,,115478,088,1,2024-03-13_15h04.01.259,Memory and Syntax,2023.2.3,MacIntel,60.0024001,,,,,309.0533,311.0553,n,0,311.0553,311.0556,,0,,,311.0557,311.0564,,311.0566,311.0567,,0,39,39,39,1,cvmt/test_items/t40.jpeg,o,,,0.4805,,,,,,,,,,,,,,,,,,,,,,,,,
,,115478,088,1,2024-03-13_15h04.01.259,Memory and Syntax,2023.2.3,MacIntel,60.0024001,,,,,311.0569,313.0516,n,1,313.0516,313.0518,,0,,,313.0519,313.0525,,313.0525,313.0526,,0,40,40,40,1,cvmt/test_items/t41.jpeg,n,,,0.7716,,,,,,,,,,,,,,,,,,,,,,,,,
,,115478,088,1,2024-03-13_15h04.01.259,Memory and Syntax,2023.2.3,MacIntel,60.0024001,,,,,313.0529,315.0523,o,1,315.0525,315.0526,,0,,,315.0526,315.0533,,315.0534,315.0535,,0,41,41,41,1,cvmt/test_items/t42.jpeg,o,,,1.1524,,,,,,,,,,,,,,,,,,,,,,,,,
,,115478,088,1,2024-03-13_15h04.01.259,Memory and Syntax,2023.2.3,MacIntel,60.0024001,,,,,315.0538,317.0545,o,1,317.0546,317.0549,,0,,,317.055,317.0555,,317.0555,317.0556,,0,42,42,42,1,cvmt/test_items/t43.jpeg,o,,,0.8699,,,,,,,,,,,,,,,,,,,,,,,,,
,,115478,088,1,2024-03-13_15h04.01.259,Memory and Syntax,2023.2.3,MacIntel,60.0024001,,,,,317.0561,319.0528,n,1,319.0528,319.0531,,0,,,319.0531,319.0538,,319.0539,319.054,,0,43,43,43,1,cvmt/test_items/t44.jpeg,n,,,0.6452,,,,,,,,,,,,,,,,,,,,,,,,,
,,115478,088,1,2024-03-13_15h04.01.259,Memory and Syntax,2023.2.3,MacIntel,60.0024001,,,,,319.0543,321.0532,n,0,321.0533,321.0536,,0,,,321.0536,321.0542,,321.0543,321.0544,,0,44,44,44,1,cvmt/test_items/t45.jpeg,o,,,0.9468,,,,,,,,,,,,,,,,,,,,,,,,,
,,115478,088,1,2024-03-13_15h04.01.259,Memory and Syntax,2023.2.3,MacIntel,60.0024001,,,,,321.0546,323.0524,n,0,323.0525,323.0528,,0,,,323.0528,323.0535,,323.0535,323.0536,,0,45,45,45,1,cvmt/test_items/t46.jpeg,o,,,0.7001,,,,,,,,,,,,,,,,,,,,,,,,,
,,115478,088,1,2024-03-13_15h04.01.259,Memory and Syntax,2023.2.3,MacIntel,60.0024001,,,,,323.0539,325.0524,o,1,325.0525,325.0527,,0,,,325.0528,325.0534,,325.0535,325.0536,,0,46,46,46,1,cvmt/test_items/t47.jpeg,o,,,0.9164,,,,,,,,,,,,,,,,,,,,,,,,,
,,115478,088,1,2024-03-13_15h04.01.259,Memory and Syntax,2023.2.3,MacIntel,60.0024001,,,,,325.0538,327.0554,o,0,327.0555,327.0558,,0,,,327.0558,327.0563,,327.0564,327.0566,,0,47,47,47,1,cvmt/test_items/t48.jpeg,n,,,0.9304,,,,,,,,,,,,,,,,,,,,,,,,,
,,115478,088,1,2024-03-13_15h04.01.259,Memory and Syntax,2023.2.3,MacIntel,60.0024001,,,,,327.0569,329.0533,n,0,329.0534,329.0537,,0,,,329.0538,329.0544,,329.0544,329.0545,,0,48,48,48,1,cvmt/test_items/t49.jpeg,o,,,0.8939,,,,,,,,,,,,,,,,,,,,,,,,,
,,115478,088,1,2024-03-13_15h04.01.259,Memory and Syntax,2023.2.3,MacIntel,60.0024001,,,,,329.0548,331.0549,o,1,331.055,331.0553,,0,,,331.0553,331.0558,,331.0559,331.056,,0,49,49,49,1,cvmt/test_items/t50.jpeg,o,,,1.0117,,,,,,,,,,,,,,,,,,,,,,,,,
,,115478,088,1,2024-03-13_15h04.01.259,Memory and Syntax,2023.2.3,MacIntel,60.0024001,,,,,331.0564,333.0546,n,1,333.0546,333.055,,0,,,333.055,333.0556,,333.0557,333.0558,,0,50,50,50,1,cvmt/test_items/t51.jpeg,n,,,0.6269,,,,,,,,,,,,,,,,,,,,,,,,,
,,115478,088,1,2024-03-13_15h04.01.259,Memory and Syntax,2023.2.3,MacIntel,60.0024001,,,,,333.0561,335.0528,o,1,335.0529,335.0533,,0,,,335.0533,335.0539,,335.0539,335.054,,0,51,51,51,1,cvmt/test_items/t52.jpeg,o,,,0.7773,,,,,,,,,,,,,,,,,,,,,,,,,
,,115478,088,1,2024-03-13_15h04.01.259,Memory and Syntax,2023.2.3,MacIntel,60.0024001,,,,,335.0542,337.0547,n,0,337.0548,337.0551,,0,,,337.0551,337.0559,,337.0559,337.056,,0,52,52,52,1,cvmt/test_items/t53.jpeg,o,,,0.615,,,,,,,,,,,,,,,,,,,,,,,,,
,,115478,088,1,2024-03-13_15h04.01.259,Memory and Syntax,2023.2.3,MacIntel,60.0024001,,,,,337.0563,339.0544,n,0,339.0545,339.0548,,0,,,339.0548,339.0554,,339.0555,339.0556,,0,53,53,53,1,cvmt/test_items/t54.jpeg,o,,,0.6957,,,,,,,,,,,,,,,,,,,,,,,,,
,,115478,088,1,2024-03-13_15h04.01.259,Memory and Syntax,2023.2.3,MacIntel,60.0024001,,,,,339.056,341.0557,o,1,341.0558,341.056,,0,,,341.0561,341.0567,,341.0567,341.057,,0,54,54,54,1,cvmt/test_items/t55.jpeg,o,,,0.577,,,,,,,,,,,,,,,,,,,,,,,,,
,,115478,088,1,2024-03-13_15h04.01.259,Memory and Syntax,2023.2.3,MacIntel,60.0024001,,,,,341.0574,343.0542,n,0,343.0543,343.0545,,0,,,343.0545,343.0552,,343.0552,343.0554,,0,55,55,55,1,cvmt/test_items/t56.jpeg,o,,,0.8078,,,,,,,,,,,,,,,,,,,,,,,,,
,,115478,088,1,2024-03-13_15h04.01.259,Memory and Syntax,2023.2.3,MacIntel,60.0024001,,,,,343.0557,345.0571,o,1,345.0572,345.0576,,0,,,345.0576,345.0583,,345.0583,345.0585,,0,56,56,56,1,cvmt/test_items/t57.jpeg,o,,,0.9651,,,,,,,,,,,,,,,,,,,,,,,,,
,,115478,088,1,2024-03-13_15h04.01.259,Memory and Syntax,2023.2.3,MacIntel,60.0024001,,,,,345.0587,347.0543,n,1,347.0543,347.0546,,0,,,347.0546,347.0554,,347.0554,347.0554,,0,57,57,57,1,cvmt/test_items/t58.jpeg,n,,,0.426,,,,,,,,,,,,,,,,,,,,,,,,,
,,115478,088,1,2024-03-13_15h04.01.259,Memory and Syntax,2023.2.3,MacIntel,60.0024001,,,,,347.0558,349.0553,o,0,349.0555,349.0558,,0,,,349.0558,349.0563,,349.0563,349.0565,,0,58,58,58,1,cvmt/test_items/t59.jpeg,n,,,0.5148,,,,,,,,,,,,,,,,,,,,,,,,,
,,115478,088,1,2024-03-13_15h04.01.259,Memory and Syntax,2023.2.3,MacIntel,60.0024001,,,,,349.0569,351.0534,n,0,351.0535,351.0538,,0,,,351.0538,351.0545,,351.0545,351.0546,,0,59,59,59,1,cvmt/test_items/t60.jpeg,o,,,0.2942,,,,,,,,,,,,,,,,,,,,,,,,,
,,115478,088,1,2024-03-13_15h04.01.259,Memory and Syntax,2023.2.3,MacIntel,60.0024001,,,,,351.0549,353.0554,o,1,353.0554,353.0558,,0,,,353.0559,353.0564,,353.0565,353.0566,,0,60,60,60,1,cvmt/test_items/t61.jpeg,o,,,0.6006,,,,,,,,,,,,,,,,,,,,,,,,,
,,115478,088,1,2024-03-13_15h04.01.259,Memory and Syntax,2023.2.3,MacIntel,60.0024001,,,,,353.057,355.0556,o,1,355.0557,355.056,,0,,,355.056,355.0567,,355.0567,355.0568,,0,61,61,61,1,cvmt/test_items/t62.jpeg,o,,,0.513,,,,,,,,,,,,,,,,,,,,,,,,,
,,115478,088,1,2024-03-13_15h04.01.259,Memory and Syntax,2023.2.3,MacIntel,60.0024001,,,,,355.0571,357.0539,o,1,357.054,357.0542,,0,,,357.0543,357.0549,,357.055,357.0551,,0,62,62,62,1,cvmt/test_items/t63.jpeg,o,,,0.6638,,,,,,,,,,,,,,,,,,,,,,,,,
,,115478,088,1,2024-03-13_15h04.01.259,Memory and Syntax,2023.2.3,MacIntel,60.0024001,,,,,357.0554,359.0537,n,0,359.0537,359.054,,0,,,359.054,359.0548,,359.0548,359.0549,,0,63,63,63,1,cvmt/test_items/t64.jpeg,o,,,0.5681,,,,,,,,,,,,,,,,,,,,,,,,,
,,115478,088,1,2024-03-13_15h04.01.259,Memory and Syntax,2023.2.3,MacIntel,60.0024001,,,,,359.0552,361.0575,o,1,361.0575,361.0579,,0,,,361.0579,361.0588,,361.0588,361.0589,,0,64,64,64,1,cvmt/test_items/t65.jpeg,o,,,0.6497,,,,,,,,,,,,,,,,,,,,,,,,,
,,115478,088,1,2024-03-13_15h04.01.259,Memory and Syntax,2023.2.3,MacIntel,60.0024001,,,,,361.0592,363.0539,o,1,363.054,363.0543,,0,,,363.0543,363.0549,,363.0549,363.055,,0,65,65,65,1,cvmt/test_items/t66.jpeg,o,,,0.4145,,,,,,,,,,,,,,,,,,,,,,,,,
,,115478,088,1,2024-03-13_15h04.01.259,Memory and Syntax,2023.2.3,MacIntel,60.0024001,,,,,363.0553,365.0563,n,1,365.0564,365.0566,,0,,,365.0566,365.0572,,365.0572,365.0576,,0,66,66,66,1,cvmt/test_items/t67.jpeg,n,,,0.7992,,,,,,,,,,,,,,,,,,,,,,,,,
,,115478,088,1,2024-03-13_15h04.01.259,Memory and Syntax,2023.2.3,MacIntel,60.0024001,,,,,365.058,367.057,n,0,367.057,367.0573,,0,,,367.0573,367.0582,,367.0582,367.0584,,0,67,67,67,1,cvmt/test_items/t68.jpeg,o,,,0.8266,,,,,,,,,,,,,,,,,,,,,,,,,
,,115478,088,1,2024-03-13_15h04.01.259,Memory and Syntax,2023.2.3,MacIntel,60.0024001,,,,,367.0587,369.0556,n,0,369.0556,369.056,,0,,,369.0561,369.0568,,369.0568,369.0569,,0,68,68,68,1,cvmt/test_items/t69.jpeg,o,,,0.4162,,,,,,,,,,,,,,,,,,,,,,,,,
,,115478,088,1,2024-03-13_15h04.01.259,Memory and Syntax,2023.2.3,MacIntel,60.0024001,,,,,369.0573,371.0558,n,0,371.0559,371.0562,,0,,,371.0562,371.0568,,371.0569,371.057,,0,69,69,69,1,cvmt/test_items/t70.jpeg,o,,,0.5984,,,,,,,,,,,,,,,,,,,,,,,,,
,,115478,088,1,2024-03-13_15h04.01.259,Memory and Syntax,2023.2.3,MacIntel,60.0024001,,,,,371.0573,373.0549,n,1,373.0551,373.0553,,0,,,373.0554,373.056,,373.0561,373.0562,,0,70,70,70,1,cvmt/test_items/t71.jpeg,n,,,0.4279,,,,,,,,,,,,,,,,,,,,,,,,,
,,115478,088,1,2024-03-13_15h04.01.259,Memory and Syntax,2023.2.3,MacIntel,60.0024001,,,,,373.0565,375.0575,o,1,375.0575,375.0579,,0,,,375.0579,375.0586,,375.0587,375.0587,,0,71,71,71,1,cvmt/test_items/t72.jpeg,o,,,0.4451,,,,,,,,,,,,,,,,,,,,,,,,,
,,115478,088,1,2024-03-13_15h04.01.259,Memory and Syntax,2023.2.3,MacIntel,60.0024001,,,,,375.059,377.0552,o,1,377.0552,377.0556,,0,,,377.0556,377.0563,,377.0563,377.0563,,0,72,72,72,1,cvmt/test_items/t73.jpeg,o,,,0.566,,,,,,,,,,,,,,,,,,,,,,,,,
,,115478,088,1,2024-03-13_15h04.01.259,Memory and Syntax,2023.2.3,MacIntel,60.0024001,,,,,377.0567,379.0544,o,1,379.0545,379.0548,,0,,,379.055,379.0555,,379.0556,379.0557,,0,73,73,73,1,cvmt/test_items/t74.jpeg,o,,,1.5285,,,,,,,,,,,,,,,,,,,,,,,,,
,,115478,088,1,2024-03-13_15h04.01.259,Memory and Syntax,2023.2.3,MacIntel,60.0024001,,,,,379.0559,381.0553,o,1,381.0554,381.0557,,0,,,381.0557,381.0565,,381.0565,381.0566,,0,74,74,74,1,cvmt/test_items/t75.jpeg,o,,,0.4505,,,,,,,,,,,,,,,,,,,,,,,,,
,,115478,088,1,2024-03-13_15h04.01.259,Memory and Syntax,2023.2.3,MacIntel,60.0024001,,,,,381.0569,383.0546,o,1,383.0547,383.055,,0,,,383.055,383.0555,,383.0556,383.0557,,0,75,75,75,1,cvmt/test_items/t76.jpeg,o,,,0.4295,,,,,,,,,,,,,,,,,,,,,,,,,
,,115478,088,1,2024-03-13_15h04.01.259,Memory and Syntax,2023.2.3,MacIntel,60.0024001,,,,,383.0561,385.0547,o,1,385.0548,385.055,,0,,,385.055,385.0557,,385.0557,385.0558,,0,76,76,76,1,cvmt/test_items/t77.jpeg,o,,,0.5561,,,,,,,,,,,,,,,,,,,,,,,,,
,,115478,088,1,2024-03-13_15h04.01.259,Memory and Syntax,2023.2.3,MacIntel,60.0024001,,,,,385.0561,387.0565,o,1,387.0565,387.0569,,0,,,387.0569,387.0574,,387.0575,387.0577,,0,77,77,77,1,cvmt/test_items/t78.jpeg,o,,,0.797,,,,,,,,,,,,,,,,,,,,,,,,,
,,115478,088,1,2024-03-13_15h04.01.259,Memory and Syntax,2023.2.3,MacIntel,60.0024001,,,,,387.058,389.0544,o,1,389.0544,389.0547,,0,,,389.0548,389.0555,,389.0555,389.0557,,0,78,78,78,1,cvmt/test_items/t79.jpeg,o,,,1.1425,,,,,,,,,,,,,,,,,,,,,,,,,
,,115478,088,1,2024-03-13_15h04.01.259,Memory and Syntax,2023.2.3,MacIntel,60.0024001,,,,,389.056,391.0579,n,1,391.058,391.0582,,0,,,391.0583,391.0589,,391.0589,391.059,,0,79,79,79,1,cvmt/test_items/t80.jpeg,n,,,1.1012,,,,,,,,,,,,,,,,,,,,,,,,,
,,115478,088,1,2024-03-13_15h04.01.259,Memory and Syntax,2023.2.3,MacIntel,60.0024001,,,,,391.0595,393.0577,,0,393.0578,395.3741,n,0,2.3044,,395.3742,395.3878,,395.3878,395.3879,,0,80,80,80,1,cvmt/test_items/t81.jpeg,o,,,,,,,,,,,,,,,,,,,,,,,,,,,,
,,115478,088,1,2024-03-13_15h04.01.259,Memory and Syntax,2023.2.3,MacIntel,60.0024001,,,,,395.3881,397.3911,n,0,397.3911,397.3937,,0,,,397.3937,397.3941,,397.3941,397.3942,,0,81,81,81,1,cvmt/test_items/t82.jpeg,o,,,0.8662,,,,,,,,,,,,,,,,,,,,,,,,,
,,115478,088,1,2024-03-13_15h04.01.259,Memory and Syntax,2023.2.3,MacIntel,60.0024001,,,,,397.3944,399.3886,n,0,399.3887,399.3889,,0,,,399.389,399.3896,,399.3896,399.3897,,0,82,82,82,1,cvmt/test_items/t83.jpeg,o,,,0.6107,,,,,,,,,,,,,,,,,,,,,,,,,
,,115478,088,1,2024-03-13_15h04.01.259,Memory and Syntax,2023.2.3,MacIntel,60.0024001,,,,,399.39,401.3887,n,0,401.3888,401.389,,0,,,401.389,401.3898,,401.3898,401.3898,,0,83,83,83,1,cvmt/test_items/t84.jpeg,o,,,0.2791,,,,,,,,,,,,,,,,,,,,,,,,,
,,115478,088,1,2024-03-13_15h04.01.259,Memory and Syntax,2023.2.3,MacIntel,60.0024001,,,,,401.39,403.3887,n,0,403.3888,403.3891,,0,,,403.3892,403.3898,,403.3898,403.39,,0,84,84,84,1,cvmt/test_items/t85.jpeg,o,,,0.5299,,,,,,,,,,,,,,,,,,,,,,,,,
,,115478,088,1,2024-03-13_15h04.01.259,Memory and Syntax,2023.2.3,MacIntel,60.0024001,,,,,403.3902,405.3905,n,0,405.3905,405.3908,,0,,,405.3908,405.3914,,405.3915,405.3916,,0,85,85,85,1,cvmt/test_items/t86.jpeg,o,,,0.6376,,,,,,,,,,,,,,,,,,,,,,,,,
,,115478,088,1,2024-03-13_15h04.01.259,Memory and Syntax,2023.2.3,MacIntel,60.0024001,,,,,405.3919,407.3908,n,0,407.3909,407.3912,,0,,,407.3913,407.3919,,407.3919,407.3921,,0,86,86,86,1,cvmt/test_items/t87.jpeg,o,,,1.1292,,,,,,,,,,,,,,,,,,,,,,,,,
,,115478,088,1,2024-03-13_15h04.01.259,Memory and Syntax,2023.2.3,MacIntel,60.0024001,,,,,407.3925,409.3889,n,1,409.389,409.3893,,0,,,409.3893,409.3901,,409.3901,409.3902,,0,87,87,87,1,cvmt/test_items/t88.jpeg,n,,,0.9017,,,,,,,,,,,,,,,,,,,,,,,,,
,,115478,088,1,2024-03-13_15h04.01.259,Memory and Syntax,2023.2.3,MacIntel,60.0024001,,,,,409.3905,411.3906,n,1,411.3907,411.391,,0,,,411.391,411.3916,,411.3917,411.3918,,0,88,88,88,1,cvmt/test_items/t89.jpeg,n,,,0.7126,,,,,,,,,,,,,,,,,,,,,,,,,
,,115478,088,1,2024-03-13_15h04.01.259,Memory and Syntax,2023.2.3,MacIntel,60.0024001,,,,,411.3922,413.3915,o,1,413.3916,413.3919,,0,,,413.3919,413.3926,,413.3926,413.3926,,0,89,89,89,1,cvmt/test_items/t90.jpeg,o,,,0.8962,,,,,,,,,,,,,,,,,,,,,,,,,
,,115478,088,1,2024-03-13_15h04.01.259,Memory and Syntax,2023.2.3,MacIntel,60.0024001,,,,,413.3929,415.3901,n,0,415.3901,415.3903,,0,,,415.3903,415.3909,,415.3909,415.391,,0,90,90,90,1,cvmt/test_items/t91.jpeg,o,,,1.148,,,,,,,,,,,,,,,,,,,,,,,,,
,,115478,088,1,2024-03-13_15h04.01.259,Memory and Syntax,2023.2.3,MacIntel,60.0024001,,,,,415.3913,417.3903,n,0,417.3903,417.3906,,0,,,417.3907,417.3913,,417.3914,417.3915,,0,91,91,91,1,cvmt/test_items/t92.jpeg,o,,,0.6445,,,,,,,,,,,,,,,,,,,,,,,,,
,,115478,088,1,2024-03-13_15h04.01.259,Memory and Syntax,2023.2.3,MacIntel,60.0024001,,,,,417.3918,419.3927,n,0,419.3928,419.3931,,0,,,419.3932,419.3941,,419.3941,419.3942,,0,92,92,92,1,cvmt/test_items/t93.jpeg,o,,,0.752,,,,,,,,,,,,,,,,,,,,,,,,,
,,115478,088,1,2024-03-13_15h04.01.259,Memory and Syntax,2023.2.3,MacIntel,60.0024001,,,,,419.3946,421.3922,n,0,421.3924,421.3926,,0,,,421.3927,421.3934,,421.3934,421.3935,,0,93,93,93,1,cvmt/test_items/t94.jpeg,o,,,1.0685,,,,,,,,,,,,,,,,,,,,,,,,,
,,115478,088,1,2024-03-13_15h04.01.259,Memory and Syntax,2023.2.3,MacIntel,60.0024001,,,,,421.3939,423.3898,n,0,423.3899,423.3902,,0,,,423.3902,423.3907,,423.3907,423.3909,,0,94,94,94,1,cvmt/test_items/t95.jpeg,o,,,0.7954,,,,,,,,,,,,,,,,,,,,,,,,,
,,115478,088,1,2024-03-13_15h04.01.259,Memory and Syntax,2023.2.3,MacIntel,60.0024001,,,,,423.3913,425.3893,n,0,425.3895,425.3898,,0,,,425.3898,425.3905,,425.3906,425.3906,,0,95,95,95,1,cvmt/test_items/t96.jpeg,o,,,0.3654,,,,,,,,,,,,,,,,,,,,,,,,,
,,115478,088,1,2024-03-13_15h04.01.259,Memory and Syntax,2023.2.3,MacIntel,60.0024001,,,,,425.3909,427.3918,n,0,427.3919,427.3921,,0,,,427.3921,427.3928,,427.3929,427.393,,0,96,96,96,1,cvmt/test_items/t97.jpeg,o,,,0.3596,,,,,,,,,,,,,,,,,,,,,,,,,
,,115478,088,1,2024-03-13_15h04.01.259,Memory and Syntax,2023.2.3,MacIntel,60.0024001,,,,,427.3934,429.3916,o,0,429.3917,429.3919,,0,,,429.3919,429.3928,,429.3928,429.3929,,0,97,97,97,1,cvmt/test_items/t98.jpeg,n,,,0.3291,,,,,,,,,,,,,,,,,,,,,,,,,
,,115478,088,1,2024-03-13_15h04.01.259,Memory and Syntax,2023.2.3,MacIntel,60.0024001,,,,,429.3934,431.3898,n,0,431.3899,431.3902,,0,,,431.3902,431.3908,,431.3908,431.3909,,0,98,98,98,1,cvmt/test_items/t99.jpeg,o,,,0.5107,,,,,,,,,,,,,,,,,,,,,,,,,
,,115478,088,1,2024-03-13_15h04.01.259,Memory and Syntax,2023.2.3,MacIntel,60.0024001,,,,,431.3912,433.3914,n,0,433.3915,433.3918,,0,,,433.3918,433.3924,,433.3924,433.3925,,0,99,99,99,1,cvmt/test_items/t100.jpeg,o,,,0.7135,,,,,,,,,,,,,,,,,,,,,,,,,
,,115478,088,1,2024-03-13_15h04.01.259,Memory and Syntax,2023.2.3,MacIntel,60.0024001,,,,,433.3928,435.3928,n,0,435.3929,435.3931,,0,,,435.3932,435.3938,,435.3939,435.394,,0,100,100,100,1,cvmt/test_items/t101.jpeg,o,,,0.8111,,,,,,,,,,,,,,,,,,,,,,,,,
,,115478,088,1,2024-03-13_15h04.01.259,Memory and Syntax,2023.2.3,MacIntel,60.0024001,,,,,435.3943,437.3908,o,1,437.3909,437.3912,,0,,,437.3912,437.3919,,437.3919,437.392,,0,101,101,101,1,cvmt/test_items/t102.jpeg,o,,,0.7454,,,,,,,,,,,,,,,,,,,,,,,,,
,,115478,088,1,2024-03-13_15h04.01.259,Memory and Syntax,2023.2.3,MacIntel,60.0024001,,,,,437.3923,439.392,n,0,439.3921,439.3923,,0,,,439.3923,439.3929,,439.393,439.393,,0,102,102,102,1,cvmt/test_items/t103.jpeg,o,,,1.3642,,,,,,,,,,,,,,,,,,,,,,,,,
,,115478,088,1,2024-03-13_15h04.01.259,Memory and Syntax,2023.2.3,MacIntel,60.0024001,,,,,439.3935,441.3922,n,0,441.3923,441.3926,,0,,,441.3926,441.3931,,441.3931,441.3933,,0,103,103,103,1,cvmt/test_items/t104.jpeg,o,,,0.9475,,,,,,,,,,,,,,,,,,,,,,,,,
,,115478,088,1,2024-03-13_15h04.01.259,Memory and Syntax,2023.2.3,MacIntel,60.0024001,,,,,441.3937,443.3927,n,1,443.3928,443.3931,,0,,,443.3931,443.3937,,443.3938,443.394,,0,104,104,104,1,cvmt/test_items/t105.jpeg,n,,,0.6286,,,,,,,,,,,,,,,,,,,,,,,,,
,,115478,088,1,2024-03-13_15h04.01.259,Memory and Syntax,2023.2.3,MacIntel,60.0024001,,,,,443.3944,445.3918,n,0,445.392,445.3922,,0,,,445.3922,445.3929,,445.3929,445.393,,0,105,105,105,1,cvmt/test_items/t106.jpeg,o,,,0.7665,,,,,,,,,,,,,,,,,,,,,,,,,
,,115478,088,1,2024-03-13_15h04.01.259,Memory and Syntax,2023.2.3,MacIntel,60.0024001,,,,,445.3933,447.3923,n,0,447.3923,447.3926,,0,,,447.3927,447.3933,,447.3934,447.3935,,0,106,106,106,1,cvmt/test_items/t107.jpeg,o,,,0.2616,,,,,,,,,,,,,,,,,,,,,,,,,
,,115478,088,1,2024-03-13_15h04.01.259,Memory and Syntax,2023.2.3,MacIntel,60.0024001,,,,,447.394,449.3898,n,0,449.39,449.3903,,0,,,449.3903,449.391,,449.391,449.3911,,0,107,107,107,1,cvmt/test_items/t108.jpeg,o,,,0.743,,,,,,,,,,,,,,,,,,,,,,,,,
,,115478,088,1,2024-03-13_15h04.01.259,Memory and Syntax,2023.2.3,MacIntel,60.0024001,,,,,449.3914,451.3915,o,1,451.3915,451.3919,,0,,,451.3919,451.3926,,451.3926,451.3928,,0,108,108,108,1,cvmt/test_items/t109.jpeg,o,,,0.7829,,,,,,,,,,,,,,,,,,,,,,,,,
,,115478,088,1,2024-03-13_15h04.01.259,Memory and Syntax,2023.2.3,MacIntel,60.0024001,,,,,451.393,453.3919,n,0,453.392,453.3922,,0,,,453.3924,453.393,,453.393,453.3931,,0,109,109,109,1,cvmt/test_items/t110.jpeg,o,,,0.6323,,,,,,,,,,,,,,,,,,,,,,,,,
,,115478,088,1,2024-03-13_15h04.01.259,Memory and Syntax,2023.2.3,MacIntel,60.0024001,,,,,453.3934,455.3929,n,0,455.393,455.3935,,0,,,455.3936,455.3941,,455.3941,455.3944,,0,110,110,110,1,cvmt/test_items/t111.jpeg,o,,,0.4527,,,,,,,,,,,,,,,,,,,,,,,,,
,,115478,088,1,2024-03-13_15h04.01.259,Memory and Syntax,2023.2.3,MacIntel,60.0024001,,,,,455.3946,457.3933,n,0,457.3935,457.3937,,0,,,457.3937,457.3944,,457.3945,457.3946,,0,111,111,111,1,cvmt/test_items/t112.jpeg,o,,,0.7182,,,,,,,,,,,,,,,,,,,,,,,,,
,,115478,088,1,2024-03-13_15h04.01.259,Memory and Syntax,2023.2.3,MacIntel,60.0024001,,,,,457.395,459.3921,n,1,459.3922,459.3925,,0,,,459.3925,459.3932,,459.3932,459.3933,,0,112,112,112,1,cvmt/test_items/t113.jpeg,n,,,0.8038,,,,,,,,,,,,,,,,,,,,,,,,,
,,115478,088,1,2024-03-13_15h04.01.259,Memory and Syntax,2023.2.3,MacIntel,60.0024001,,,,,459.3937,461.3923,n,0,461.3924,461.3926,,0,,,461.3926,461.3933,,461.3933,461.3934,,0,113,113,113,1,cvmt/test_items/t114.jpeg,o,,,0.7963,,,,,,,,,,,,,,,,,,,,,,,,,
,,115478,088,1,2024-03-13_15h04.01.259,Memory and Syntax,2023.2.3,MacIntel,60.0024001,,,,,461.3938,463.3903,o,1,463.3904,463.3906,,0,,,463.3907,463.3913,,463.3913,463.3914,,0,114,114,114,1,cvmt/test_items/t115.jpeg,o,,,1.0281,,,,,,,,,,,,,,,,,,,,,,,,,
,,115478,088,1,2024-03-13_15h04.01.259,Memory and Syntax,2023.2.3,MacIntel,60.0024001,,,,,463.3918,465.3935,n,0,465.3935,465.3937,,0,,,465.3938,465.3945,,465.3945,465.3946,,0,115,115,115,1,cvmt/test_items/t116.jpeg,o,,,0.5291,,,,,,,,,,,,,,,,,,,,,,,,,
,,115478,088,1,2024-03-13_15h04.01.259,Memory and Syntax,2023.2.3,MacIntel,60.0024001,,,,,465.3949,467.3908,n,0,467.3908,467.3912,,0,,,467.3912,467.3919,,467.3919,467.3921,,0,116,116,116,1,cvmt/test_items/t117.jpeg,o,,,0.6408,,,,,,,,,,,,,,,,,,,,,,,,,
,,115478,088,1,2024-03-13_15h04.01.259,Memory and Syntax,2023.2.3,MacIntel,60.0024001,,,,,467.3923,469.3907,n,0,469.3908,469.3911,,0,,,469.3911,469.3917,,469.3918,469.3918,,0,117,117,117,1,cvmt/test_items/t118.jpeg,o,,,0.5125,,,,,,,,,,,,,,,,,,,,,,,,,
,,115478,088,1,2024-03-13_15h04.01.259,Memory and Syntax,2023.2.3,MacIntel,60.0024001,,,,,469.3922,471.3945,n,0,471.3946,471.3948,,0,,,471.3948,471.3956,,471.3956,471.3957,,0,118,118,118,1,cvmt/test_items/t119.jpeg,o,,,0.5796,,,,,,,,,,,,,,,,,,,,,,,,,
,,115478,088,1,2024-03-13_15h04.01.259,Memory and Syntax,2023.2.3,MacIntel,60.0024001,,,,,471.3961,473.3923,n,0,473.3924,473.3927,,0,,,473.3928,473.3935,,473.3935,473.3936,,0,119,119,119,1,cvmt/test_items/t120.jpeg,o,,,0.9489,,,,,,,,,,,,,,,,,,,,,,,,,
,,115478,088,1,2024-03-13_15h04.01.259,Memory and Syntax,2023.2.3,MacIntel,60.0024001,,,,,473.3939,475.3924,n,0,475.3925,475.3928,,0,,,475.3928,475.3934,,475.3935,475.3936,,0,120,120,120,1,cvmt/test_items/t121.jpeg,o,,,0.3717,,,,,,,,,,,,,,,,,,,,,,,,,
,,115478,088,1,2024-03-13_15h04.01.259,Memory and Syntax,2023.2.3,MacIntel,60.0024001,,,,,475.3939,477.3908,n,0,477.3909,477.3912,,0,,,477.3913,477.3917,,477.3918,477.392,,0,121,121,121,1,cvmt/test_items/t122.jpeg,o,,,0.3432,,,,,,,,,,,,,,,,,,,,,,,,,
,,115478,088,1,2024-03-13_15h04.01.259,Memory and Syntax,2023.2.3,MacIntel,60.0024001,,,,,477.3923,479.392,n,1,479.392,479.3923,,0,,,479.3924,479.3929,,479.393,479.3931,,0,122,122,122,1,cvmt/test_items/t123.jpeg,n,,,0.3267,,,,,,,,,,,,,,,,,,,,,,,,,
,,115478,088,1,2024-03-13_15h04.01.259,Memory and Syntax,2023.2.3,MacIntel,60.0024001,,,,,479.3935,481.3914,n,0,481.3914,481.3917,,0,,,481.3918,481.3925,,481.3925,481.3926,,0,123,123,123,1,cvmt/test_items/t124.jpeg,o,,,0.8139,,,,,,,,,,,,,,,,,,,,,,,,,
,,115478,088,1,2024-03-13_15h04.01.259,Memory and Syntax,2023.2.3,MacIntel,60.0024001,,,,,481.3928,483.3931,o,1,483.3931,483.3935,,0,,,483.3935,483.3942,,483.3942,483.3943,,0,124,124,124,1,cvmt/test_items/t125.jpeg,o,,,0.6594,,,,,,,,,,,,,,,,,,,,,,,,,
,,115478,088,1,2024-03-13_15h04.01.259,Memory and Syntax,2023.2.3,MacIntel,60.0024001,,,,,483.3946,485.392,n,0,485.392,485.3923,,0,,,485.3923,485.3932,,485.3932,485.3932,,0,125,125,125,1,cvmt/test_items/t126.jpeg,o,,,0.5468,,,,,,,,,,,,,,,,,,,,,,,,,
,,115478,088,1,2024-03-13_15h04.01.259,Memory and Syntax,2023.2.3,MacIntel,60.0024001,,,,,485.3935,487.3941,n,0,487.3942,487.3946,,0,,,487.3947,487.3954,,487.3955,487.3956,,0,126,126,126,1,cvmt/test_items/t127.jpeg,o,,,0.3414,,,,,,,,,,,,,,,,,,,,,,,,,
,,115478,088,1,2024-03-13_15h04.01.259,Memory and Syntax,2023.2.3,MacIntel,60.0024001,,,,,487.3961,489.3932,o,1,489.3932,489.3935,,0,,,489.3935,489.3942,,489.3942,489.3944,,0,127,127,127,1,cvmt/test_items/t128.jpeg,o,,,0.9141,,,,,,,,,,,,,,,,,,,,,,,,,
,,115478,088,1,2024-03-13_15h04.01.259,Memory and Syntax,2023.2.3,MacIntel,60.0024001,,,,,489.3947,491.3918,o,1,491.3918,491.3921,,0,,,491.3921,491.3929,,491.3929,491.393,,0,128,128,128,1,cvmt/test_items/t129.jpeg,o,,,0.6546,,,,,,,,,,,,,,,,,,,,,,,,,
,,115478,088,1,2024-03-13_15h04.01.259,Memory and Syntax,2023.2.3,MacIntel,60.0024001,,,,,491.3933,493.3931,o,1,493.3932,493.3936,,0,,,493.3936,493.3942,,493.3943,493.3944,,0,129,129,129,1,cvmt/test_items/t130.jpeg,o,,,1.3913,,,,,,,,,,,,,,,,,,,,,,,,,
,,115478,088,1,2024-03-13_15h04.01.259,Memory and Syntax,2023.2.3,MacIntel,60.0024001,,,,,493.3947,495.3935,n,1,495.3937,495.394,,0,,,495.394,495.3946,,495.3947,495.3947,,0,130,130,130,1,cvmt/test_items/t131.jpeg,n,,,0.7133,,,,,,,,,,,,,,,,,,,,,,,,,
,,115478,088,1,2024-03-13_15h04.01.259,Memory and Syntax,2023.2.3,MacIntel,60.0024001,,,,,495.3951,497.3938,o,1,497.3938,497.3941,,0,,,497.3941,497.3946,,497.3947,497.3948,,0,131,131,131,1,cvmt/test_items/t132.jpeg,o,,,0.6807,,,,,,,,,,,,,,,,,,,,,,,,,
,,115478,088,1,2024-03-13_15h04.01.259,Memory and Syntax,2023.2.3,MacIntel,60.0024001,,,,,497.395,499.393,n,0,499.3931,499.3934,,0,,,499.3934,499.3941,,499.3941,499.3943,,0,132,132,132,1,cvmt/test_items/t133.jpeg,o,,,0.7499,,,,,,,,,,,,,,,,,,,,,,,,,
,,115478,088,1,2024-03-13_15h04.01.259,Memory and Syntax,2023.2.3,MacIntel,60.0024001,,,,,499.3949,501.3939,o,1,501.394,501.3942,,0,,,501.3943,501.3949,,501.395,501.3952,,0,133,133,133,1,cvmt/test_items/t134.jpeg,o,,,0.679,,,,,,,,,,,,,,,,,,,,,,,,,
,,115478,088,1,2024-03-13_15h04.01.259,Memory and Syntax,2023.2.3,MacIntel,60.0024001,,,,,501.3955,503.3931,o,1,503.3931,503.3934,,0,,,503.3935,503.394,,503.3941,503.3942,,0,134,134,134,1,cvmt/test_items/t135.jpeg,o,,,0.9122,,,,,,,,,,,,,,,,,,,,,,,,,
,,115478,088,1,2024-03-13_15h04.01.259,Memory and Syntax,2023.2.3,MacIntel,60.0024001,,,,,,,,,,,,,,,,,,,,,,,,,,,,,,,,,,503.3948,503.3951,0.0003,503.4048,511.9125,space,7.813,,511.9247,521.0284,4,9.094,0,0,0,0,1,1,1,WOV,8B,Practiced the virtuoso many pieces.
,,115478,088,1,2024-03-13_15h04.01.259,Memory and Syntax,2023.2.3,MacIntel,60.0024001,,,,,,,,,,,,,,,,,,,,,,,,,,,,,,,,,,,,,,,,,,521.029,524.4275,6.1,3.3883,0,1,1,1,1,1,2,AS,6A,The rickety old boat sank.
,,115478,088,1,2024-03-13_15h04.01.259,Memory and Syntax,2023.2.3,MacIntel,60.0024001,,,,,,,,,,,,,,,,,,,,,,,,,,,,,,,,,,,,,,,,,,524.428,527.3457,4.2,2.9077,0,2,2,2,1,1,3,WO,6A,The waiter set the table promptly.
,,115478,088,1,2024-03-13_15h04.01.259,Memory and Syntax,2023.2.3,MacIntel,60.0024001,,,,,,,,,,,,,,,,,,,,,,,,,,,,,,,,,,,,,,,,,,527.346,530.1449,2.7,2.7906,0,3,3,3,1,1,4,control,12B,They anticipate that everybody you do will contact Megan.
,,115478,088,1,2024-03-13_15h04.01.259,Memory and Syntax,2023.2.3,MacIntel,60.0024001,,,,,,,,,,,,,,,,,,,,,,,,,,,,,,,,,,,,,,,,,,530.1454,532.8787,6.9,2.7222,0,4,4,4,1,1,5,ASV,11B,The cat moved himself away.
,,115478,088,1,2024-03-13_15h04.01.259,Memory and Syntax,2023.2.3,MacIntel,60.0024001,,,,,,,,,,,,,,,,,,,,,,,,,,,,,,,,,,,,,,,,,,532.8789,536.1459,1,3.2575,0,5,5,5,1,1,6,ASV,7B,She laughed herself at the dog.
,,115478,088,1,2024-03-13_15h04.01.259,Memory and Syntax,2023.2.3,MacIntel,60.0024001,,,,,,,,,,,,,,,,,,,,,,,,,,,,,,,,,,,,,,,,,,536.1463,540.0125,5.2,3.855,0,6,6,6,1,1,7,AS,5A,The professor cried about the article.
,,115478,088,1,2024-03-13_15h04.01.259,Memory and Syntax,2023.2.3,MacIntel,60.0024001,,,,,,,,,,,,,,,,,,,,,,,,,,,,,,,,,,,,,,,,,,540.013,544.6788,7,4.6564,0,7,7,7,1,1,8,WO,5A,My sibling expected a good grade.
,,115478,088,1,2024-03-13_15h04.01.259,Memory and Syntax,2023.2.3,MacIntel,60.0024001,,,,,,,,,,,,,,,,,,,,,,,,,,,,,,,,,,,,,,,,,,544.6791,549.0435,4.9,4.3587,0,8,8,8,1,1,9,filler,1A,There has been a man considered violent.
,,115478,088,1,2024-03-13_15h04.01.259,Memory and Syntax,2023.2.3,MacIntel,60.0024001,,,,,,,,,,,,,,,,,,,,,,,,,,,,,,,,,,,,,,,,,,549.0438,552.0959,6.6,3.0421,0,9,9,9,1,1,10,AS,2A,Taylor subscribed to the channel.
,,115478,088,1,2024-03-13_15h04.01.259,Memory and Syntax,2023.2.3,MacIntel,60.0024001,,,,,,,,,,,,,,,,,,,,,,,,,,,,,,,,,,,,,,,,,,552.0965,557.711,1,5.6071,0,10,10,10,1,1,11,control,10B,There might fossils seem to be several miles underground.
,,115478,088,1,2024-03-13_15h04.01.259,Memory and Syntax,2023.2.3,MacIntel,60.0024001,,,,,,,,,,,,,,,,,,,,,,,,,,,,,,,,,,,,,,,,,,557.7114,563.814,2.8,6.0915,0,11,11,11,1,1,12,ASV,8B,Esperanza sighed herself at the desk.
,,115478,088,1,2024-03-13_15h04.01.259,Memory and Syntax,2023.2.3,MacIntel,60.0024001,,,,,,,,,,,,,,,,,,,,,,,,,,,,,,,,,,,,,,,,,,563.8144,568.7783,3,4.9573,0,12,12,12,1,1,13,WOV,9B,Read we five pages each night.
,,115478,088,1,2024-03-13_15h04.01.259,Memory and Syntax,2023.2.3,MacIntel,60.0024001,,,,,,,,,,,,,,,,,,,,,,,,,,,,,,,,,,,,,,,,,,568.7786,572.0303,2,3.2431,0,13,13,13,1,1,14,WOV,7B,Frightened the eerie sound Seth.
,,115478,088,1,2024-03-13_15h04.01.259,Memory and Syntax,2023.2.3,MacIntel,60.0024001,,,,,,,,,,,,,,,,,,,,,,,,,,,,,,,,,,,,,,,,,,572.0307,575.7624,5.8,3.7208,0,14,14,14,1,1,15,filler,2A,"Arty is sick, and Mark is too."
,,115478,088,1,2024-03-13_15h04.01.259,Memory and Syntax,2023.2.3,MacIntel,60.0024001,,,,,,,,,,,,,,,,,,,,,,,,,,,,,,,,,,,,,,,,,,575.7628,579.6797,6,3.9084,0,15,15,15,1,1,16,ASV,9B,The prime minister confessed herself to bribery.
,,115478,088,1,2024-03-13_15h04.01.259,Memory and Syntax,2023.2.3,MacIntel,60.0024001,,,,,,,,,,,,,,,,,,,,,,,,,,,,,,,,,,,,,,,,,,579.6801,582.9974,6,3.3071,0,16,16,16,1,1,17,control,7B,Olivia told Gregory when to exonerate herself.
,,115478,088,1,2024-03-13_15h04.01.259,Memory and Syntax,2023.2.3,MacIntel,60.0024001,,,,,,,,,,,,,,,,,,,,,,,,,,,,,,,,,,,,,,,,,,582.998,586.9624,3.5,3.9574,0,17,17,17,1,1,18,control,11B,There are likely students to be in the library.
,,115478,088,1,2024-03-13_15h04.01.259,Memory and Syntax,2023.2.3,MacIntel,60.0024001,,,,,,,,,,,,,,,,,,,,,,,,,,,,,,,,,,,,,,,,,,586.9629,590.2288,4,3.2592,0,18,18,18,1,1,19,filler,5A,I told Mandy who would win the election.
,,115478,088,1,2024-03-13_15h04.01.259,Memory and Syntax,2023.2.3,MacIntel,60.0024001,,,,,,,,,,,,,,,,,,,,,,,,,,,,,,,,,,,,,,,,,,590.2291,595.6456,5,5.4067,0,19,19,19,1,1,20,control,9B,We consider there three problems.
,,115478,088,1,2024-03-13_15h04.01.259,Memory and Syntax,2023.2.3,MacIntel,60.0024001,,,,,,,,,,,,,,,,,,,,,,,,,,,,,,,,,,,,,,,,,,595.6459,598.6783,4.8,3.023,0,20,20,20,1,1,21,control,8B,She called Victor and yelled at.
,,115478,088,1,2024-03-13_15h04.01.259,Memory and Syntax,2023.2.3,MacIntel,60.0024001,,,,,,,,,,,,,,,,,,,,,,,,,,,,,,,,,,,,,,,,,,598.6787,601.2657,3.7,2.5772,0,21,21,21,1,1,22,WO,4A,The bully pushed every student.
,,115478,088,1,2024-03-13_15h04.01.259,Memory and Syntax,2023.2.3,MacIntel,60.0024001,,,,,,,,,,,,,,,,,,,,,,,,,,,,,,,,,,,,,,,,,,601.2661,604.0305,6.9,2.754,0,22,22,22,1,1,23,WO,3A,Miguel baked delicious cupcakes.
,,115478,088,1,2024-03-13_15h04.01.259,Memory and Syntax,2023.2.3,MacIntel,60.0024001,,,,,,,,,,,,,,,,,,,,,,,,,,,,,,,,,,,,,,,,,,604.0308,606.5479,6.7,2.5057,0,23,23,23,1,1,24,WO,1A,Abby answered the question.
,,115478,088,1,2024-03-13_15h04.01.259,Memory and Syntax,2023.2.3,MacIntel,60.0024001,,,,,,,,,,,,,,,,,,,,,,,,,,,,,,,,,,,,,,,,,,606.5483,610.013,6.1,3.4545,0,24,24,24,1,1,25,filler,3A,Brittany attempted to touch the porcupine.
,,115478,088,1,2024-03-13_15h04.01.259,Memory and Syntax,2023.2.3,MacIntel,60.0024001,,,,,,,,,,,,,,,,,,,,,,,,,,,,,,,,,,,,,,,,,,610.0133,612.5988,4.8,2.5741,0,25,25,25,1,1,26,AS,3A,Gracie stayed by the window.
,,115478,088,1,2024-03-13_15h04.01.259,Memory and Syntax,2023.2.3,MacIntel,60.0024001,,,,,,,,,,,,,,,,,,,,,,,,,,,,,,,,,,,,,,,,,,612.5992,616.981,3.8,4.3733,0,26,26,26,1,1,27,WOV,11B,Wrote she her boyfriend a poem.
,,115478,088,1,2024-03-13_15h04.01.259,Memory and Syntax,2023.2.3,MacIntel,60.0024001,,,,,,,,,,,,,,,,,,,,,,,,,,,,,,,,,,,,,,,,,,616.9815,619.732,3.4,2.7394,0,27,27,27,1,1,28,WOV,12B,Watched Lily a movie.
,,115478,088,1,2024-03-13_15h04.01.259,Memory and Syntax,2023.2.3,MacIntel,60.0024001,,,,,,,,,,,,,,,,,,,,,,,,,,,,,,,,,,,,,,,,,,619.7326,622.3163,5.6,2.5738,0,28,28,28,1,1,29,WO,2A,Jackie won the close race.
,,115478,088,1,2024-03-13_15h04.01.259,Memory and Syntax,2023.2.3,MacIntel,60.0024001,,,,,,,,,,,,,,,,,,,,,,,,,,,,,,,,,,,,,,,,,,622.3167,624.7466,6.2,2.4227,0,29,29,29,1,1,30,AS,4A,Tomas drank from the water pitcher.
,,115478,088,1,2024-03-13_15h04.01.259,Memory and Syntax,2023.2.3,MacIntel,60.0024001,,,,,,,,,,,,,,,,,,,,,,,,,,,,,,,,,,,,,,,,,,624.7469,627.5168,4.9,2.7591,0,30,30,30,1,1,31,WOV,10B,Kissed Kareem his boyfriend.
,,115478,088,1,2024-03-13_15h04.01.259,Memory and Syntax,2023.2.3,MacIntel,60.0024001,,,,,,,,,,,,,,,,,,,,,,,,,,,,,,,,,,,,,,,,,,627.5173,629.9831,4.9,2.455,0,31,31,31,1,1,32,ASV,10B,The children quieted themselves.
,,115478,088,1,2024-03-13_15h04.01.259,Memory and Syntax,2023.2.3,MacIntel,60.0024001,,,,,,,,,,,,,,,,,,,,,,,,,,,,,,,,,,,,,,,,,,629.9836,632.4635,4.9,2.4722,0,32,32,32,1,1,33,AS,1A,They fidgeted in their chairs.
,,115478,088,1,2024-03-13_15h04.01.259,Memory and Syntax,2023.2.3,MacIntel,60.0024001,,,,,,,,,,,,,,,,,,,,,,,,,,,,,,,,,,,,,,,,,,632.4639,634.8993,3.9,2.4256,0,33,33,33,1,1,34,filler,4A,It seems to him that Kim solved the problem.
,,115478,088,1,2024-03-13_15h04.01.259,Memory and Syntax,2023.2.3,MacIntel,60.0024001,,,,,,,,,,,,,,,,,,,,,,,,,,,,,,,,,,,,,,,,,,634.8997,637.749,4.3,2.84,0,34,34,34,1,1,35,ASV,12B,The swimmers shaved themselves.