load.started,load.stopped,Sona ID,Participant ID,Session,date,expName,psychopyVersion,OS,frameRate,cvmtInstr.started,cvmtInstr.stopped,cvmtTaskInstr.started,cvmtTaskInstr.stopped,presentDesign.started,presentDesign.stopped,cvmt_key_resp.keys,cvmt_key_resp.corr,cvmtNoResp.started,cvmtNoResp.stopped,cvmt_key_resp2.keys,cvmt_key_resp2.corr,cvmt_key_resp2.rt,cvmt_key_resp2.duration,cvmtSampleFB.started,cvmtSampleFB.stopped,key_resp_15.keys,cvmtSampleFBFinal.started,cvmtSampleFBFinal.stopped,cvmt_final_samp_fb_key_resp.keys,cvmtTrials.thisRepN,cvmtTrials.thisTrialN,cvmtTrials.thisN,cvmtTrials.thisIndex,cvmtTrials.ran,cvmt_design,old_or_new,cvmt_key_resp.rt,cvmt_key_resp.duration,key_resp_15.rt,key_resp_15.duration,cvmt_final_samp_fb_key_resp.rt,cvmt_final_samp_fb_key_resp.duration,cvmtDelay.started,cvmtDelay.stopped,cvmt timer,engAJT_instr.started,engAJT_instr.stopped,start_ajt.keys,start_ajt.rt,start_ajt.duration,engAJT.started,engAJT.stopped,acceptability.response,acceptability.rt,engAJT_trials.thisRepN,engAJT_trials.thisTrialN,engAJT_trials.thisN,engAJT_trials.thisIndex,engAJT_trials.ran,ajt_list,list_position,condition,item,testSent
0.0003,0.5025,116652,115,1,2024-03-07_13h30.53.784,Memory and Syntax,2023.2.3,Win32,59.88023952,,,,,,,,,,,,,,,,,,,,,,,,,,,,,,,,,,,,,,,,,,,,,,,,,,,,,,,
,,116652,115,1,2024-03-07_13h30.53.784,Memory and Syntax,2023.2.3,Win32,59.88023952,0.5538,18.6841,18.694,34.1588,34.2455,36.1624,,0,36.163,43.2029,n,1,7.0058,,43.2045,43.2302,,43.2314,43.2347,,0,0,0,0,1,cvmt/sample/s1.jpg,n,,,,,,,,,,,,,,,,,,,,,,,,,,,,
,,116652,115,1,2024-03-07_13h30.53.784,Memory and Syntax,2023.2.3,Win32,59.88023952,,,,,43.2382,45.2302,o,0,45.2315,45.2341,,0,,,45.2356,49.532,c,49.5332,49.5361,,0,1,1,1,1,cvmt/sample/s2.jpg,n,0.8823,,4.2634,,,,,,,,,,,,,,,,,,,,,,,,,
,,116652,115,1,2024-03-07_13h30.53.784,Memory and Syntax,2023.2.3,Win32,59.88023952,,,,,49.5672,51.5455,,0,51.5468,51.8629,o,1,0.2985,,51.8641,51.8697,,51.8709,51.8731,,0,2,2,2,1,cvmt/sample/s3.jpg,o,,,,,,,,,,,,,,,,,,,,,,,,,,,,
,,116652,115,1,2024-03-07_13h30.53.784,Memory and Syntax,2023.2.3,Win32,59.88023952,,,,,51.8768,53.8788,n,1,53.8799,53.8821,,0,,,53.8833,53.8869,,53.8881,53.8904,,0,3,3,3,1,cvmt/sample/s4.jpg,n,1.5626,,,,,,,,,,,,,,,,,,,,,,,,,,,
,,116652,115,1,2024-03-07_13h30.53.784,Memory and Syntax,2023.2.3,Win32,59.88023952,,,,,53.8937,55.8886,n,1,55.8896,55.892,,0,,,55.8933,55.8961,,55.8974,55.8995,,0,4,4,4,1,cvmt/sample/s5.jpg,n,0.879,,,,,,,,,,,,,,,,,,,,,,,,,,,
,,116652,115,1,2024-03-07_13h30.53.784,Memory and Syntax,2023.2.3,Win32,59.88023952,,,,,55.9033,57.8955,n,1,57.8968,57.8994,,0,,,57.9006,57.9039,,57.905,57.9073,,0,5,5,5,1,cvmt/sample/s6.jpg,n,0.718,,,,,,,,,,,,,,,,,,,,,,,,,,,
,,116652,115,1,2024-03-07_13h30.53.784,Memory and Syntax,2023.2.3,Win32,59.88023952,,,,,57.9109,59.9147,o,1,59.9159,59.919,,0,,,59.9202,59.923,,59.9241,59.9263,,0,6,6,6,1,cvmt/sample/s7.jpg,o,1.0925,,,,,,,,,,,,,,,,,,,,,,,,,,,
,,116652,115,1,2024-03-07_13h30.53.784,Memory and Syntax,2023.2.3,Win32,59.88023952,,,,,59.93,61.9201,n,1,61.9212,61.9241,,0,,,61.9254,61.9282,,61.9293,61.9316,,0,7,7,7,1,cvmt/sample/s8.jpg,n,0.9646,,,,,,,,,,,,,,,,,,,,,,,,,,,
,,116652,115,1,2024-03-07_13h30.53.784,Memory and Syntax,2023.2.3,Win32,59.88023952,,,,,61.9356,63.9311,n,1,63.932,63.9348,,0,,,63.9362,63.9389,,63.94,63.9422,,0,8,8,8,1,cvmt/sample/s9.jpg,n,0.7857,,,,,,,,,,,,,,,,,,,,,,,,,,,
,,116652,115,1,2024-03-07_13h30.53.784,Memory and Syntax,2023.2.3,Win32,59.88023952,,,,,63.9454,65.9367,n,1,65.9379,65.9409,,0,,,65.9423,65.9451,,65.9463,65.9486,,0,9,9,9,1,cvmt/sample/s10.jpg,n,0.7091,,,,,,,,,,,,,,,,,,,,,,,,,,,
,,116652,115,1,2024-03-07_13h30.53.784,Memory and Syntax,2023.2.3,Win32,59.88023952,,,,,65.9528,67.9478,n,0,67.949,67.9523,,0,,,67.9536,71.795,c,71.7957,87.2454,c,0,10,10,10,1,cvmt/sample/s11.jpg,o,0.6414,,3.8131,,15.3858,,,,,,,,,,,,,,,,,,,,,,,
,,116652,115,1,2024-03-07_13h30.53.784,Memory and Syntax,2023.2.3,Win32,59.88023952,,,87.2507,93.7386,93.7558,95.7503,n,1,95.7504,95.7543,,0,,,95.7544,95.7571,,95.7572,95.7586,,0,0,0,0,1,cvmt/test_items/t1.jpeg,n,1.1185,,,,,,,,,,,,,,,,,,,,,,,,,,,
,,116652,115,1,2024-03-07_13h30.53.784,Memory and Syntax,2023.2.3,Win32,59.88023952,,,,,95.7591,97.7765,n,1,97.7766,97.7768,,0,,,97.7769,97.7773,,97.7773,97.7775,,0,1,1,1,1,cvmt/test_items/t2.jpeg,n,0.8978,,,,,,,,,,,,,,,,,,,,,,,,,,,
,,116652,115,1,2024-03-07_13h30.53.784,Memory and Syntax,2023.2.3,Win32,59.88023952,,,,,97.7778,99.7787,n,0,99.7787,99.7791,,0,,,99.7791,99.7796,,99.7797,99.7798,,0,2,2,2,1,cvmt/test_items/t3.jpeg,o,0.8463,,,,,,,,,,,,,,,,,,,,,,,,,,,
,,116652,115,1,2024-03-07_13h30.53.784,Memory and Syntax,2023.2.3,Win32,59.88023952,,,,,99.7801,101.7699,n,0,101.77,101.7702,,0,,,101.7702,101.7707,,101.7708,101.771,,0,3,3,3,1,cvmt/test_items/t4.jpeg,o,0.7744,,,,,,,,,,,,,,,,,,,,,,,,,,,
,,116652,115,1,2024-03-07_13h30.53.784,Memory and Syntax,2023.2.3,Win32,59.88023952,,,,,101.7713,103.7761,n,0,103.7761,103.7764,,0,,,103.7764,103.7769,,103.7769,103.777,,0,4,4,4,1,cvmt/test_items/t5.jpeg,o,0.8942,,,,,,,,,,,,,,,,,,,,,,,,,,,
,,116652,115,1,2024-03-07_13h30.53.784,Memory and Syntax,2023.2.3,Win32,59.88023952,,,,,103.7774,105.7786,n,0,105.7787,105.779,,0,,,105.779,105.7798,,105.7798,105.78,,0,5,5,5,1,cvmt/test_items/t6.jpeg,o,0.7581,,,,,,,,,,,,,,,,,,,,,,,,,,,
,,116652,115,1,2024-03-07_13h30.53.784,Memory and Syntax,2023.2.3,Win32,59.88023952,,,,,105.7804,107.7759,n,0,107.7759,107.7762,,0,,,107.7762,107.7767,,107.7767,107.7768,,0,6,6,6,1,cvmt/test_items/t7.jpeg,o,0.7949,,,,,,,,,,,,,,,,,,,,,,,,,,,
,,116652,115,1,2024-03-07_13h30.53.784,Memory and Syntax,2023.2.3,Win32,59.88023952,,,,,107.7772,109.7782,,0,109.7783,109.8664,n,0,0.057,,109.8666,109.8672,,109.8673,109.8673,,0,7,7,7,1,cvmt/test_items/t8.jpeg,o,,,,,,,,,,,,,,,,,,,,,,,,,,,,
,,116652,115,1,2024-03-07_13h30.53.784,Memory and Syntax,2023.2.3,Win32,59.88023952,,,,,109.8678,111.8592,,0,111.8592,111.8709,n,0,0.0007,,111.8709,111.8715,,111.8716,111.8717,,0,8,8,8,1,cvmt/test_items/t9.jpeg,o,,,,,,,,,,,,,,,,,,,,,,,,,,,,
,,116652,115,1,2024-03-07_13h30.53.784,Memory and Syntax,2023.2.3,Win32,59.88023952,,,,,111.8722,113.8614,n,0,113.8615,113.8617,,0,,,113.8617,113.8623,,113.8623,113.8624,,0,9,9,9,1,cvmt/test_items/t10.jpeg,o,1.5817,,,,,,,,,,,,,,,,,,,,,,,,,,,
,,116652,115,1,2024-03-07_13h30.53.784,Memory and Syntax,2023.2.3,Win32,59.88023952,,,,,113.8628,115.8589,n,1,115.8589,115.8591,,0,,,115.8591,115.8596,,115.8597,115.8598,,0,10,10,10,1,cvmt/test_items/t11.jpeg,n,1.2027,,,,,,,,,,,,,,,,,,,,,,,,,,,
,,116652,115,1,2024-03-07_13h30.53.784,Memory and Syntax,2023.2.3,Win32,59.88023952,,,,,115.8601,117.8524,n,0,117.8524,117.8527,,0,,,117.8528,117.8532,,117.8533,117.8534,,0,11,11,11,1,cvmt/test_items/t12.jpeg,o,0.8543,,,,,,,,,,,,,,,,,,,,,,,,,,,
,,116652,115,1,2024-03-07_13h30.53.784,Memory and Syntax,2023.2.3,Win32,59.88023952,,,,,117.8537,119.842,n,0,119.8421,119.8422,,0,,,119.8423,119.8428,,119.8428,119.8429,,0,12,12,12,1,cvmt/test_items/t13.jpeg,o,1.056,,,,,,,,,,,,,,,,,,,,,,,,,,,
,,116652,115,1,2024-03-07_13h30.53.784,Memory and Syntax,2023.2.3,Win32,59.88023952,,,,,119.8433,121.8446,n,0,121.8447,121.8449,,0,,,121.8449,121.8455,,121.8456,121.8456,,0,13,13,13,1,cvmt/test_items/t14.jpeg,o,0.8321,,,,,,,,,,,,,,,,,,,,,,,,,,,
,,116652,115,1,2024-03-07_13h30.53.784,Memory and Syntax,2023.2.3,Win32,59.88023952,,,,,121.846,123.8444,o,1,123.8445,123.8447,,0,,,123.8447,123.8452,,123.8453,123.8453,,0,14,14,14,1,cvmt/test_items/t15.jpeg,o,1.1588,,,,,,,,,,,,,,,,,,,,,,,,,,,
,,116652,115,1,2024-03-07_13h30.53.784,Memory and Syntax,2023.2.3,Win32,59.88023952,,,,,123.8457,125.8356,n,0,125.8357,125.8358,,0,,,125.8359,125.8364,,125.8364,125.8365,,0,15,15,15,1,cvmt/test_items/t16.jpeg,o,1.0853,,,,,,,,,,,,,,,,,,,,,,,,,,,
,,116652,115,1,2024-03-07_13h30.53.784,Memory and Syntax,2023.2.3,Win32,59.88023952,,,,,125.8369,127.8333,n,0,127.8335,127.8337,,0,,,127.8337,127.8344,,127.8344,127.8345,,0,16,16,16,1,cvmt/test_items/t17.jpeg,o,0.9388,,,,,,,,,,,,,,,,,,,,,,,,,,,
,,116652,115,1,2024-03-07_13h30.53.784,Memory and Syntax,2023.2.3,Win32,59.88023952,,,,,127.8349,129.8342,n,0,129.8343,129.8345,,0,,,129.8346,129.835,,129.8351,129.8351,,0,17,17,17,1,cvmt/test_items/t18.jpeg,o,0.7619,,,,,,,,,,,,,,,,,,,,,,,,,,,
,,116652,115,1,2024-03-07_13h30.53.784,Memory and Syntax,2023.2.3,Win32,59.88023952,,,,,129.8355,131.8276,n,1,131.8276,131.8279,,0,,,131.8279,131.8285,,131.8285,131.8286,,0,18,18,18,1,cvmt/test_items/t19.jpeg,n,0.9051,,,,,,,,,,,,,,,,,,,,,,,,,,,
,,116652,115,1,2024-03-07_13h30.53.784,Memory and Syntax,2023.2.3,Win32,59.88023952,,,,,131.829,133.8174,o,1,133.8174,133.8177,,0,,,133.8177,133.8182,,133.8183,133.8184,,0,19,19,19,1,cvmt/test_items/t20.jpeg,o,1.2349,,,,,,,,,,,,,,,,,,,,,,,,,,,
,,116652,115,1,2024-03-07_13h30.53.784,Memory and Syntax,2023.2.3,Win32,59.88023952,,,,,133.8188,135.8106,o,1,135.8107,135.811,,0,,,135.811,135.8118,,135.8118,135.812,,0,20,20,20,1,cvmt/test_items/t21.jpeg,o,1.4287,,,,,,,,,,,,,,,,,,,,,,,,,,,
,,116652,115,1,2024-03-07_13h30.53.784,Memory and Syntax,2023.2.3,Win32,59.88023952,,,,,135.8125,137.8008,o,1,137.8008,137.801,,0,,,137.8012,137.8016,,137.8017,137.8017,,0,21,21,21,1,cvmt/test_items/t22.jpeg,o,1.1561,,,,,,,,,,,,,,,,,,,,,,,,,,,
,,116652,115,1,2024-03-07_13h30.53.784,Memory and Syntax,2023.2.3,Win32,59.88023952,,,,,137.8021,139.7938,n,1,139.7938,139.7941,,0,,,139.7942,139.7948,,139.7948,139.795,,0,22,22,22,1,cvmt/test_items/t23.jpeg,n,1.054,,,,,,,,,,,,,,,,,,,,,,,,,,,
,,116652,115,1,2024-03-07_13h30.53.784,Memory and Syntax,2023.2.3,Win32,59.88023952,,,,,139.7953,141.7975,n,1,141.7975,141.7978,,0,,,141.7978,141.7985,,141.7986,141.7987,,0,23,23,23,1,cvmt/test_items/t24.jpeg,n,0.8737,,,,,,,,,,,,,,,,,,,,,,,,,,,
,,116652,115,1,2024-03-07_13h30.53.784,Memory and Syntax,2023.2.3,Win32,59.88023952,,,,,141.7992,143.7973,o,1,143.7973,143.7976,,0,,,143.7977,143.7982,,143.7983,143.7984,,0,24,24,24,1,cvmt/test_items/t25.jpeg,o,0.9686,,,,,,,,,,,,,,,,,,,,,,,,,,,
,,116652,115,1,2024-03-07_13h30.53.784,Memory and Syntax,2023.2.3,Win32,59.88023952,,,,,143.7988,145.7911,o,0,145.7912,145.7914,,0,,,145.7914,145.7919,,145.7919,145.792,,0,25,25,25,1,cvmt/test_items/t26.jpeg,n,1.0614,,,,,,,,,,,,,,,,,,,,,,,,,,,
,,116652,115,1,2024-03-07_13h30.53.784,Memory and Syntax,2023.2.3,Win32,59.88023952,,,,,145.7923,147.7912,o,1,147.7913,147.7915,,0,,,147.7915,147.792,,147.792,147.7921,,0,26,26,26,1,cvmt/test_items/t27.jpeg,o,1.0835,,,,,,,,,,,,,,,,,,,,,,,,,,,
,,116652,115,1,2024-03-07_13h30.53.784,Memory and Syntax,2023.2.3,Win32,59.88023952,,,,,147.7925,149.7935,n,1,149.7935,149.7937,,0,,,149.7938,149.7944,,149.7945,149.7947,,0,27,27,27,1,cvmt/test_items/t28.jpeg,n,0.8994,,,,,,,,,,,,,,,,,,,,,,,,,,,
,,116652,115,1,2024-03-07_13h30.53.784,Memory and Syntax,2023.2.3,Win32,59.88023952,,,,,149.7952,151.7844,n,1,151.7844,151.7846,,0,,,151.7846,151.7854,,151.7855,151.7857,,0,28,28,28,1,cvmt/test_items/t29.jpeg,n,0.8466,,,,,,,,,,,,,,,,,,,,,,,,,,,
,,116652,115,1,2024-03-07_13h30.53.784,Memory and Syntax,2023.2.3,Win32,59.88023952,,,,,151.7861,153.7919,o,1,153.7919,153.7922,,0,,,153.7922,153.7927,,153.7927,153.7928,,0,29,29,29,1,cvmt/test_items/t30.jpeg,o,1.3222,,,,,,,,,,,,,,,,,,,,,,,,,,,
,,116652,115,1,2024-03-07_13h30.53.784,Memory and Syntax,2023.2.3,Win32,59.88023952,,,,,153.7932,155.7853,o,1,155.7853,155.7857,,0,,,155.7857,155.7864,,155.7864,155.7866,,0,30,30,30,1,cvmt/test_items/t31.jpeg,o,1.0931,,,,,,,,,,,,,,,,,,,,,,,,,,,
,,116652,115,1,2024-03-07_13h30.53.784,Memory and Syntax,2023.2.3,Win32,59.88023952,,,,,155.787,157.7765,n,1,157.7765,157.7767,,0,,,157.7768,157.7774,,157.7775,157.7775,,0,31,31,31,1,cvmt/test_items/t32.jpeg,n,1.1288,,,,,,,,,,,,,,,,,,,,,,,,,,,
,,116652,115,1,2024-03-07_13h30.53.784,Memory and Syntax,2023.2.3,Win32,59.88023952,,,,,157.7779,159.7773,n,1,159.7774,159.7777,,0,,,159.7777,159.7784,,159.7785,159.7787,,0,32,32,32,1,cvmt/test_items/t33.jpeg,n,1.0827,,,,,,,,,,,,,,,,,,,,,,,,,,,
,,116652,115,1,2024-03-07_13h30.53.784,Memory and Syntax,2023.2.3,Win32,59.88023952,,,,,159.779,161.7674,o,1,161.7675,161.7678,,0,,,161.7679,161.7684,,161.7685,161.7686,,0,33,33,33,1,cvmt/test_items/t34.jpeg,o,1.1261,,,,,,,,,,,,,,,,,,,,,,,,,,,
,,116652,115,1,2024-03-07_13h30.53.784,Memory and Syntax,2023.2.3,Win32,59.88023952,,,,,161.7689,163.7638,o,0,163.7639,163.7642,,0,,,163.7642,163.7646,,163.7646,163.7648,,0,34,34,34,1,cvmt/test_items/t35.jpeg,n,1.1165,,,,,,,,,,,,,,,,,,,,,,,,,,,
,,116652,115,1,2024-03-07_13h30.53.784,Memory and Syntax,2023.2.3,Win32,59.88023952,,,,,163.7652,165.757,o,1,165.757,165.7573,,0,,,165.7573,165.7579,,165.7579,165.758,,0,35,35,35,1,cvmt/test_items/t36.jpeg,o,1.2706,,,,,,,,,,,,,,,,,,,,,,,,,,,
,,116652,115,1,2024-03-07_13h30.53.784,Memory and Syntax,2023.2.3,Win32,59.88023952,,,,,165.7584,167.7596,o,0,167.7596,167.7598,,0,,,167.7599,167.7606,,167.7606,167.7607,,0,36,36,36,1,cvmt/test_items/t37.jpeg,n,1.1846,,,,,,,,,,,,,,,,,,,,,,,,,,,
,,116652,115,1,2024-03-07_13h30.53.784,Memory and Syntax,2023.2.3,Win32,59.88023952,,,,,167.7611,169.7506,o,1,169.7506,169.7509,,0,,,169.7509,169.7513,,169.7514,169.7515,,0,37,37,37,1,cvmt/test_items/t38.jpeg,o,1.1354,,,,,,,,,,,,,,,,,,,,,,,,,,,
,,116652,115,1,2024-03-07_13h30.53.784,Memory and Syntax,2023.2.3,Win32,59.88023952,,,,,169.7518,171.747,n,1,171.747,171.7473,,0,,,171.7473,171.7479,,171.7479,171.7482,,0,38,38,38,1,cvmt/test_items/t39.jpeg,n,1.004,,,,,,,,,,,,,,,,,,,,,,,,,,,
,,116652,115,1,2024-03-07_13h30.53.784,Memory and Syntax,2023.2.3,Win32,59.88023952,,,,,171.7485,173.7426,o,1,173.7428,173.743,,0,,,173.743,173.7436,,173.7436,173.7437,,0,39,39,39,1,cvmt/test_items/t40.jpeg,o,1.3419,,,,,,,,,,,,,,,,,,,,,,,,,,,
,,116652,115,1,2024-03-07_13h30.53.784,Memory and Syntax,2023.2.3,Win32,59.88023952,,,,,173.7441,175.7567,n,1,175.7567,175.757,,0,,,175.757,175.7577,,175.7577,175.7577,,0,40,40,40,1,cvmt/test_items/t41.jpeg,n,1.2704,,,,,,,,,,,,,,,,,,,,,,,,,,,
,,116652,115,1,2024-03-07_13h30.53.784,Memory and Syntax,2023.2.3,Win32,59.88023952,,,,,175.7581,177.7593,o,1,177.7593,177.7596,,0,,,177.7597,177.7602,,177.7603,177.7603,,0,41,41,41,1,cvmt/test_items/t42.jpeg,o,1.1512,,,,,,,,,,,,,,,,,,,,,,,,,,,
,,116652,115,1,2024-03-07_13h30.53.784,Memory and Syntax,2023.2.3,Win32,59.88023952,,,,,177.7607,179.7572,o,1,179.7573,179.7574,,0,,,179.7575,179.7579,,179.7579,179.7581,,0,42,42,42,1,cvmt/test_items/t43.jpeg,o,0.8192,,,,,,,,,,,,,,,,,,,,,,,,,,,
,,116652,115,1,2024-03-07_13h30.53.784,Memory and Syntax,2023.2.3,Win32,59.88023952,,,,,179.7584,181.757,n,1,181.757,181.7573,,0,,,181.7573,181.7578,,181.7578,181.7578,,0,43,43,43,1,cvmt/test_items/t44.jpeg,n,1.0318,,,,,,,,,,,,,,,,,,,,,,,,,,,
,,116652,115,1,2024-03-07_13h30.53.784,Memory and Syntax,2023.2.3,Win32,59.88023952,,,,,181.7582,183.759,n,0,183.759,183.7593,,0,,,183.7594,183.7599,,183.7599,183.76,,0,44,44,44,1,cvmt/test_items/t45.jpeg,o,0.9818,,,,,,,,,,,,,,,,,,,,,,,,,,,
,,116652,115,1,2024-03-07_13h30.53.784,Memory and Syntax,2023.2.3,Win32,59.88023952,,,,,183.7604,185.7589,o,1,185.759,185.7592,,0,,,185.7593,185.7599,,185.76,185.7602,,0,45,45,45,1,cvmt/test_items/t46.jpeg,o,1.1815,,,,,,,,,,,,,,,,,,,,,,,,,,,
,,116652,115,1,2024-03-07_13h30.53.784,Memory and Syntax,2023.2.3,Win32,59.88023952,,,,,185.7606,187.7588,n,0,187.7589,187.7591,,0,,,187.7592,187.7597,,187.7597,187.7599,,0,46,46,46,1,cvmt/test_items/t47.jpeg,o,1.1856,,,,,,,,,,,,,,,,,,,,,,,,,,,
,,116652,115,1,2024-03-07_13h30.53.784,Memory and Syntax,2023.2.3,Win32,59.88023952,,,,,187.7602,189.7588,o,0,189.7589,189.7591,,0,,,189.7592,189.7597,,189.7598,189.76,,0,47,47,47,1,cvmt/test_items/t48.jpeg,n,1.3135,,,,,,,,,,,,,,,,,,,,,,,,,,,
,,116652,115,1,2024-03-07_13h30.53.784,Memory and Syntax,2023.2.3,Win32,59.88023952,,,,,189.7606,191.7498,o,1,191.7498,191.7501,,0,,,191.7501,191.7506,,191.7508,191.7508,,0,48,48,48,1,cvmt/test_items/t49.jpeg,o,1.1168,,,,,,,,,,,,,,,,,,,,,,,,,,,
,,116652,115,1,2024-03-07_13h30.53.784,Memory and Syntax,2023.2.3,Win32,59.88023952,,,,,191.7512,193.7419,o,1,193.742,193.7422,,0,,,193.7422,193.7428,,193.7428,193.7429,,0,49,49,49,1,cvmt/test_items/t50.jpeg,o,0.9369,,,,,,,,,,,,,,,,,,,,,,,,,,,
,,116652,115,1,2024-03-07_13h30.53.784,Memory and Syntax,2023.2.3,Win32,59.88023952,,,,,193.7433,195.7419,n,1,195.7419,195.7422,,0,,,195.7422,195.7427,,195.7427,195.7428,,0,50,50,50,1,cvmt/test_items/t51.jpeg,n,1.0092,,,,,,,,,,,,,,,,,,,,,,,,,,,
,,116652,115,1,2024-03-07_13h30.53.784,Memory and Syntax,2023.2.3,Win32,59.88023952,,,,,195.7431,197.7419,o,1,197.742,197.7421,,0,,,197.7422,197.7428,,197.7428,197.7429,,0,51,51,51,1,cvmt/test_items/t52.jpeg,o,1.1483,,,,,,,,,,,,,,,,,,,,,,,,,,,
,,116652,115,1,2024-03-07_13h30.53.784,Memory and Syntax,2023.2.3,Win32,59.88023952,,,,,197.7433,199.7417,o,1,199.7417,199.742,,0,,,199.742,199.7426,,199.7426,199.7428,,0,52,52,52,1,cvmt/test_items/t53.jpeg,o,0.8946,,,,,,,,,,,,,,,,,,,,,,,,,,,
,,116652,115,1,2024-03-07_13h30.53.784,Memory and Syntax,2023.2.3,Win32,59.88023952,,,,,199.7431,201.7556,o,1,201.7557,201.7559,,0,,,201.7559,201.7563,,201.7563,201.7564,,0,53,53,53,1,cvmt/test_items/t54.jpeg,o,0.8827,,,,,,,,,,,,,,,,,,,,,,,,,,,
,,116652,115,1,2024-03-07_13h30.53.784,Memory and Syntax,2023.2.3,Win32,59.88023952,,,,,201.7568,203.7582,o,1,203.7582,203.7585,,0,,,203.7585,203.7593,,203.7594,203.7596,,0,54,54,54,1,cvmt/test_items/t55.jpeg,o,0.7523,,,,,,,,,,,,,,,,,,,,,,,,,,,
,,116652,115,1,2024-03-07_13h30.53.784,Memory and Syntax,2023.2.3,Win32,59.88023952,,,,,203.76,205.7556,n,0,205.7557,205.7558,,0,,,205.7559,205.7563,,205.7564,205.7565,,0,55,55,55,1,cvmt/test_items/t56.jpeg,o,1.075,,,,,,,,,,,,,,,,,,,,,,,,,,,
,,116652,115,1,2024-03-07_13h30.53.784,Memory and Syntax,2023.2.3,Win32,59.88023952,,,,,205.7568,207.7581,o,1,207.7583,207.7586,,0,,,207.7586,207.7593,,207.7594,207.7595,,0,56,56,56,1,cvmt/test_items/t57.jpeg,o,0.9395,,,,,,,,,,,,,,,,,,,,,,,,,,,
,,116652,115,1,2024-03-07_13h30.53.784,Memory and Syntax,2023.2.3,Win32,59.88023952,,,,,207.7599,209.7596,n,1,209.7596,209.7599,,0,,,209.7599,209.7604,,209.7605,209.7606,,0,57,57,57,1,cvmt/test_items/t58.jpeg,n,1.0249,,,,,,,,,,,,,,,,,,,,,,,,,,,
,,116652,115,1,2024-03-07_13h30.53.784,Memory and Syntax,2023.2.3,Win32,59.88023952,,,,,209.7609,211.758,o,0,211.758,211.7582,,0,,,211.7583,211.7588,,211.7589,211.759,,0,58,58,58,1,cvmt/test_items/t59.jpeg,n,0.9183,,,,,,,,,,,,,,,,,,,,,,,,,,,
,,116652,115,1,2024-03-07_13h30.53.784,Memory and Syntax,2023.2.3,Win32,59.88023952,,,,,211.7594,213.758,o,1,213.758,213.7583,,0,,,213.7583,213.7588,,213.7589,213.7589,,0,59,59,59,1,cvmt/test_items/t60.jpeg,o,1.0741,,,,,,,,,,,,,,,,,,,,,,,,,,,
,,116652,115,1,2024-03-07_13h30.53.784,Memory and Syntax,2023.2.3,Win32,59.88023952,,,,,213.7593,215.7579,o,1,215.7579,215.7581,,0,,,215.7582,215.759,,215.759,215.7592,,0,60,60,60,1,cvmt/test_items/t61.jpeg,o,0.8877,,,,,,,,,,,,,,,,,,,,,,,,,,,
,,116652,115,1,2024-03-07_13h30.53.784,Memory and Syntax,2023.2.3,Win32,59.88023952,,,,,215.7596,217.7578,o,1,217.7578,217.7581,,0,,,217.7581,217.7586,,217.7586,217.7588,,0,61,61,61,1,cvmt/test_items/t62.jpeg,o,0.6714,,,,,,,,,,,,,,,,,,,,,,,,,,,
,,116652,115,1,2024-03-07_13h30.53.784,Memory and Syntax,2023.2.3,Win32,59.88023952,,,,,217.759,219.7579,o,1,219.7579,219.7582,,0,,,219.7583,219.759,,219.759,219.7591,,0,62,62,62,1,cvmt/test_items/t63.jpeg,o,0.8206,,,,,,,,,,,,,,,,,,,,,,,,,,,
,,116652,115,1,2024-03-07_13h30.53.784,Memory and Syntax,2023.2.3,Win32,59.88023952,,,,,219.7594,221.7577,o,1,221.7578,221.758,,0,,,221.758,221.7585,,221.7586,221.7587,,0,63,63,63,1,cvmt/test_items/t64.jpeg,o,0.6866,,,,,,,,,,,,,,,,,,,,,,,,,,,
,,116652,115,1,2024-03-07_13h30.53.784,Memory and Syntax,2023.2.3,Win32,59.88023952,,,,,221.759,223.7467,o,1,223.7467,223.747,,0,,,223.7471,223.7476,,223.7476,223.7477,,0,64,64,64,1,cvmt/test_items/t65.jpeg,o,0.9887,,,,,,,,,,,,,,,,,,,,,,,,,,,
,,116652,115,1,2024-03-07_13h30.53.784,Memory and Syntax,2023.2.3,Win32,59.88023952,,,,,223.7481,225.742,o,1,225.7422,225.7424,,0,,,225.7424,225.7429,,225.743,225.7431,,0,65,65,65,1,cvmt/test_items/t66.jpeg,o,0.8483,,,,,,,,,,,,,,,,,,,,,,,,,,,
,,116652,115,1,2024-03-07_13h30.53.784,Memory and Syntax,2023.2.3,Win32,59.88023952,,,,,225.7435,227.7408,n,1,227.7408,227.741,,0,,,227.7411,227.7417,,227.7418,227.7419,,0,66,66,66,1,cvmt/test_items/t67.jpeg,n,0.9883,,,,,,,,,,,,,,,,,,,,,,,,,,,
,,116652,115,1,2024-03-07_13h30.53.784,Memory and Syntax,2023.2.3,Win32,59.88023952,,,,,227.7425,229.7557,n,0,229.7557,229.7561,,0,,,229.7561,229.7567,,229.7568,229.7569,,0,67,67,67,1,cvmt/test_items/t68.jpeg,o,0.8529,,,,,,,,,,,,,,,,,,,,,,,,,,,
,,116652,115,1,2024-03-07_13h30.53.784,Memory and Syntax,2023.2.3,Win32,59.88023952,,,,,229.7574,231.7573,o,1,231.7573,231.7575,,0,,,231.7575,231.758,,231.758,231.7581,,0,68,68,68,1,cvmt/test_items/t69.jpeg,o,1.3472,,,,,,,,,,,,,,,,,,,,,,,,,,,
,,116652,115,1,2024-03-07_13h30.53.784,Memory and Syntax,2023.2.3,Win32,59.88023952,,,,,231.7585,233.7573,o,1,233.7574,233.7575,,0,,,233.7576,233.7581,,233.7581,233.7582,,0,69,69,69,1,cvmt/test_items/t70.jpeg,o,0.9552,,,,,,,,,,,,,,,,,,,,,,,,,,,
,,116652,115,1,2024-03-07_13h30.53.784,Memory and Syntax,2023.2.3,Win32,59.88023952,,,,,233.7586,235.7551,o,0,235.7552,235.7556,,0,,,235.7556,235.756,,235.756,235.7562,,0,70,70,70,1,cvmt/test_items/t71.jpeg,n,0.6757,,,,,,,,,,,,,,,,,,,,,,,,,,,
,,116652,115,1,2024-03-07_13h30.53.784,Memory and Syntax,2023.2.3,Win32,59.88023952,,,,,235.7566,237.757,o,1,237.757,237.7573,,0,,,237.7574,237.7578,,237.7578,237.7579,,0,71,71,71,1,cvmt/test_items/t72.jpeg,o,0.8213,,,,,,,,,,,,,,,,,,,,,,,,,,,
,,116652,115,1,2024-03-07_13h30.53.784,Memory and Syntax,2023.2.3,Win32,59.88023952,,,,,237.7583,239.7482,o,1,239.7483,239.7485,,0,,,239.7486,239.7493,,239.7493,239.7494,,0,72,72,72,1,cvmt/test_items/t73.jpeg,o,0.8235,,,,,,,,,,,,,,,,,,,,,,,,,,,
,,116652,115,1,2024-03-07_13h30.53.784,Memory and Syntax,2023.2.3,Win32,59.88023952,,,,,239.7497,241.7377,o,1,241.7378,241.7379,,0,,,241.738,241.7385,,241.7385,241.7387,,0,73,73,73,1,cvmt/test_items/t74.jpeg,o,0.8769,,,,,,,,,,,,,,,,,,,,,,,,,,,
,,116652,115,1,2024-03-07_13h30.53.784,Memory and Syntax,2023.2.3,Win32,59.88023952,,,,,241.739,243.7312,o,1,243.7312,243.7315,,0,,,243.7315,243.732,,243.7321,243.7321,,0,74,74,74,1,cvmt/test_items/t75.jpeg,o,0.7401,,,,,,,,,,,,,,,,,,,,,,,,,,,
,,116652,115,1,2024-03-07_13h30.53.784,Memory and Syntax,2023.2.3,Win32,59.88023952,,,,,243.7325,245.7274,o,1,245.7274,245.7276,,0,,,245.7277,245.7282,,245.7282,245.7283,,0,75,75,75,1,cvmt/test_items/t76.jpeg,o,0.7249,,,,,,,,,,,,,,,,,,,,,,,,,,,
,,116652,115,1,2024-03-07_13h30.53.784,Memory and Syntax,2023.2.3,Win32,59.88023952,,,,,245.7287,247.7215,o,1,247.7215,247.7217,,0,,,247.7218,247.7223,,247.7223,247.7225,,0,76,76,76,1,cvmt/test_items/t77.jpeg,o,0.9267,,,,,,,,,,,,,,,,,,,,,,,,,,,
,,116652,115,1,2024-03-07_13h30.53.784,Memory and Syntax,2023.2.3,Win32,59.88023952,,,,,247.7228,249.7234,o,1,249.7235,249.7237,,0,,,249.7237,249.7243,,249.7244,249.7244,,0,77,77,77,1,cvmt/test_items/t78.jpeg,o,0.852,,,,,,,,,,,,,,,,,,,,,,,,,,,
,,116652,115,1,2024-03-07_13h30.53.784,Memory and Syntax,2023.2.3,Win32,59.88023952,,,,,249.7248,251.7233,n,0,251.7233,251.7236,,0,,,251.7236,251.7242,,251.7242,251.7244,,0,78,78,78,1,cvmt/test_items/t79.jpeg,o,1.1146,,,,,,,,,,,,,,,,,,,,,,,,,,,
,,116652,115,1,2024-03-07_13h30.53.784,Memory and Syntax,2023.2.3,Win32,59.88023952,,,,,251.7247,253.7207,n,1,253.7208,253.721,,0,,,253.721,253.7215,,253.7216,253.7216,,0,79,79,79,1,cvmt/test_items/t80.jpeg,n,1.2468,,,,,,,,,,,,,,,,,,,,,,,,,,,
,,116652,115,1,2024-03-07_13h30.53.784,Memory and Syntax,2023.2.3,Win32,59.88023952,,,,,253.722,255.723,o,1,255.7231,255.7233,,0,,,255.7234,255.7239,,255.7239,255.7241,,0,80,80,80,1,cvmt/test_items/t81.jpeg,o,1.3309,,,,,,,,,,,,,,,,,,,,,,,,,,,
,,116652,115,1,2024-03-07_13h30.53.784,Memory and Syntax,2023.2.3,Win32,59.88023952,,,,,255.7246,257.7375,,0,257.7376,257.8968,n,0,0.1413,,257.8969,257.8975,,257.8975,257.8976,,0,81,81,81,1,cvmt/test_items/t82.jpeg,o,,,,,,,,,,,,,,,,,,,,,,,,,,,,
,,116652,115,1,2024-03-07_13h30.53.784,Memory and Syntax,2023.2.3,Win32,59.88023952,,,,,257.8981,259.8895,n,0,259.8896,259.8898,,0,,,259.8899,259.8904,,259.8904,259.8905,,0,82,82,82,1,cvmt/test_items/t83.jpeg,o,1.4249,,,,,,,,,,,,,,,,,,,,,,,,,,,
,,116652,115,1,2024-03-07_13h30.53.784,Memory and Syntax,2023.2.3,Win32,59.88023952,,,,,259.8908,261.8895,o,1,261.8895,261.8898,,0,,,261.8898,261.8903,,261.8903,261.8904,,0,83,83,83,1,cvmt/test_items/t84.jpeg,o,1.0285,,,,,,,,,,,,,,,,,,,,,,,,,,,
,,116652,115,1,2024-03-07_13h30.53.784,Memory and Syntax,2023.2.3,Win32,59.88023952,,,,,261.8908,263.8894,o,1,263.8895,263.8898,,0,,,263.8898,263.8903,,263.8904,263.8905,,0,84,84,84,1,cvmt/test_items/t85.jpeg,o,0.8661,,,,,,,,,,,,,,,,,,,,,,,,,,,
,,116652,115,1,2024-03-07_13h30.53.784,Memory and Syntax,2023.2.3,Win32,59.88023952,,,,,263.8908,265.8802,o,1,265.8803,265.8806,,0,,,265.8806,265.8811,,265.8811,265.8812,,0,85,85,85,1,cvmt/test_items/t86.jpeg,o,0.5139,,,,,,,,,,,,,,,,,,,,,,,,,,,
,,116652,115,1,2024-03-07_13h30.53.784,Memory and Syntax,2023.2.3,Win32,59.88023952,,,,,265.8815,267.8702,n,0,267.8702,267.8705,,0,,,267.8705,267.871,,267.871,267.8711,,0,86,86,86,1,cvmt/test_items/t87.jpeg,o,1.0745,,,,,,,,,,,,,,,,,,,,,,,,,,,
,,116652,115,1,2024-03-07_13h30.53.784,Memory and Syntax,2023.2.3,Win32,59.88023952,,,,,267.8715,269.8726,n,1,269.8726,269.8729,,0,,,269.8729,269.8736,,269.8736,269.8737,,0,87,87,87,1,cvmt/test_items/t88.jpeg,n,0.851,,,,,,,,,,,,,,,,,,,,,,,,,,,
,,116652,115,1,2024-03-07_13h30.53.784,Memory and Syntax,2023.2.3,Win32,59.88023952,,,,,269.8742,271.87,o,0,271.8701,271.8703,,0,,,271.8703,271.871,,271.871,271.8711,,0,88,88,88,1,cvmt/test_items/t89.jpeg,n,0.9309,,,,,,,,,,,,,,,,,,,,,,,,,,,
,,116652,115,1,2024-03-07_13h30.53.784,Memory and Syntax,2023.2.3,Win32,59.88023952,,,,,271.8713,273.8724,o,1,273.8724,273.8727,,0,,,273.8727,273.8734,,273.8734,273.8735,,0,89,89,89,1,cvmt/test_items/t90.jpeg,o,0.8702,,,,,,,,,,,,,,,,,,,,,,,,,,,
,,116652,115,1,2024-03-07_13h30.53.784,Memory and Syntax,2023.2.3,Win32,59.88023952,,,,,273.8738,275.8724,o,1,275.8724,275.8727,,0,,,275.8727,275.8733,,275.8734,275.8735,,0,90,90,90,1,cvmt/test_items/t91.jpeg,o,0.7812,,,,,,,,,,,,,,,,,,,,,,,,,,,
,,116652,115,1,2024-03-07_13h30.53.784,Memory and Syntax,2023.2.3,Win32,59.88023952,,,,,275.8738,277.8724,o,1,277.8724,277.8726,,0,,,277.8726,277.8733,,277.8734,277.8734,,0,91,91,91,1,cvmt/test_items/t92.jpeg,o,0.8305,,,,,,,,,,,,,,,,,,,,,,,,,,,
,,116652,115,1,2024-03-07_13h30.53.784,Memory and Syntax,2023.2.3,Win32,59.88023952,,,,,277.8738,279.8862,o,1,279.8862,279.8864,,0,,,279.8865,279.8868,,279.8868,279.887,,0,92,92,92,1,cvmt/test_items/t93.jpeg,o,0.8337,,,,,,,,,,,,,,,,,,,,,,,,,,,
,,116652,115,1,2024-03-07_13h30.53.784,Memory and Syntax,2023.2.3,Win32,59.88023952,,,,,279.8872,281.876,o,1,281.8761,281.8766,,0,,,281.8766,281.8774,,281.8774,281.8775,,0,93,93,93,1,cvmt/test_items/t94.jpeg,o,1.353,,,,,,,,,,,,,,,,,,,,,,,,,,,
,,116652,115,1,2024-03-07_13h30.53.784,Memory and Syntax,2023.2.3,Win32,59.88023952,,,,,281.878,283.8758,o,1,283.8758,283.8761,,0,,,283.8762,283.8766,,283.8767,283.8768,,0,94,94,94,1,cvmt/test_items/t95.jpeg,o,0.9798,,,,,,,,,,,,,,,,,,,,,,,,,,,
,,116652,115,1,2024-03-07_13h30.53.784,Memory and Syntax,2023.2.3,Win32,59.88023952,,,,,283.8773,285.8759,o,1,285.8759,285.8762,,0,,,285.8762,285.877,,285.877,285.8771,,0,95,95,95,1,cvmt/test_items/t96.jpeg,o,0.6923,,,,,,,,,,,,,,,,,,,,,,,,,,,
,,116652,115,1,2024-03-07_13h30.53.784,Memory and Syntax,2023.2.3,Win32,59.88023952,,,,,285.8775,287.8783,o,1,287.8783,287.8785,,0,,,287.8785,287.8791,,287.8791,287.8793,,0,96,96,96,1,cvmt/test_items/t97.jpeg,o,0.7951,,,,,,,,,,,,,,,,,,,,,,,,,,,
,,116652,115,1,2024-03-07_13h30.53.784,Memory and Syntax,2023.2.3,Win32,59.88023952,,,,,287.8797,289.8859,n,1,289.8859,289.8861,,0,,,289.8861,289.8866,,289.8867,289.8868,,0,97,97,97,1,cvmt/test_items/t98.jpeg,n,0.8574,,,,,,,,,,,,,,,,,,,,,,,,,,,
,,116652,115,1,2024-03-07_13h30.53.784,Memory and Syntax,2023.2.3,Win32,59.88023952,,,,,289.8871,291.8885,n,0,291.8886,291.8888,,0,,,291.8888,291.8893,,291.8893,291.8894,,0,98,98,98,1,cvmt/test_items/t99.jpeg,o,0.9875,,,,,,,,,,,,,,,,,,,,,,,,,,,
,,116652,115,1,2024-03-07_13h30.53.784,Memory and Syntax,2023.2.3,Win32,59.88023952,,,,,291.8898,293.8883,o,1,293.8883,293.8886,,0,,,293.8887,293.8893,,293.8894,293.8896,,0,99,99,99,1,cvmt/test_items/t100.jpeg,o,0.9412,,,,,,,,,,,,,,,,,,,,,,,,,,,
,,116652,115,1,2024-03-07_13h30.53.784,Memory and Syntax,2023.2.3,Win32,59.88023952,,,,,293.89,295.8884,n,0,295.8884,295.8888,,0,,,295.8888,295.8896,,295.8896,295.8897,,0,100,100,100,1,cvmt/test_items/t101.jpeg,o,1.7906,,,,,,,,,,,,,,,,,,,,,,,,,,,
,,116652,115,1,2024-03-07_13h30.53.784,Memory and Syntax,2023.2.3,Win32,59.88023952,,,,,295.8901,297.8862,o,1,297.8862,297.8865,,0,,,297.8865,297.8871,,297.8871,297.8872,,0,101,101,101,1,cvmt/test_items/t102.jpeg,o,1.5409,,,,,,,,,,,,,,,,,,,,,,,,,,,
,,116652,115,1,2024-03-07_13h30.53.784,Memory and Syntax,2023.2.3,Win32,59.88023952,,,,,297.8876,299.9025,o,1,299.9025,299.9028,,0,,,299.9028,299.9033,,299.9034,299.9034,,0,102,102,102,1,cvmt/test_items/t103.jpeg,o,0.6026,,,,,,,,,,,,,,,,,,,,,,,,,,,
,,116652,115,1,2024-03-07_13h30.53.784,Memory and Syntax,2023.2.3,Win32,59.88023952,,,,,299.9038,301.9048,o,1,301.9048,301.905,,0,,,301.905,301.9057,,301.9058,301.906,,0,103,103,103,1,cvmt/test_items/t104.jpeg,o,0.7867,,,,,,,,,,,,,,,,,,,,,,,,,,,
,,116652,115,1,2024-03-07_13h30.53.784,Memory and Syntax,2023.2.3,Win32,59.88023952,,,,,301.9063,303.9086,n,1,303.9086,303.9089,,0,,,303.9089,303.9094,,303.9094,303.9095,,0,104,104,104,1,cvmt/test_items/t105.jpeg,n,1.038,,,,,,,,,,,,,,,,,,,,,,,,,,,
,,116652,115,1,2024-03-07_13h30.53.784,Memory and Syntax,2023.2.3,Win32,59.88023952,,,,,303.9098,305.9046,o,1,305.9046,305.9049,,0,,,305.9049,305.9056,,305.9057,305.9058,,0,105,105,105,1,cvmt/test_items/t106.jpeg,o,1.3201,,,,,,,,,,,,,,,,,,,,,,,,,,,
,,116652,115,1,2024-03-07_13h30.53.784,Memory and Syntax,2023.2.3,Win32,59.88023952,,,,,305.9061,307.9084,o,1,307.9085,307.9088,,0,,,307.9088,307.9093,,307.9093,307.9094,,0,106,106,106,1,cvmt/test_items/t107.jpeg,o,0.5003,,,,,,,,,,,,,,,,,,,,,,,,,,,
,,116652,115,1,2024-03-07_13h30.53.784,Memory and Syntax,2023.2.3,Win32,59.88023952,,,,,307.9098,309.9031,o,1,309.9032,309.9033,,0,,,309.9033,309.9038,,309.904,309.904,,0,107,107,107,1,cvmt/test_items/t108.jpeg,o,1.4697,,,,,,,,,,,,,,,,,,,,,,,,,,,
,,116652,115,1,2024-03-07_13h30.53.784,Memory and Syntax,2023.2.3,Win32,59.88023952,,,,,309.9045,311.9019,n,0,311.9019,311.9021,,0,,,311.9021,311.9026,,311.9027,311.9028,,0,108,108,108,1,cvmt/test_items/t109.jpeg,o,1.1951,,,,,,,,,,,,,,,,,,,,,,,,,,,
,,116652,115,1,2024-03-07_13h30.53.784,Memory and Syntax,2023.2.3,Win32,59.88023952,,,,,311.9032,313.9043,n,0,313.9045,313.9047,,0,,,313.9048,313.9053,,313.9053,313.9054,,0,109,109,109,1,cvmt/test_items/t110.jpeg,o,1.0787,,,,,,,,,,,,,,,,,,,,,,,,,,,
,,116652,115,1,2024-03-07_13h30.53.784,Memory and Syntax,2023.2.3,Win32,59.88023952,,,,,313.9059,315.9017,o,1,315.9018,315.9019,,0,,,315.902,315.9024,,315.9025,315.9025,,0,110,110,110,1,cvmt/test_items/t111.jpeg,o,1.5056,,,,,,,,,,,,,,,,,,,,,,,,,,,
,,116652,115,1,2024-03-07_13h30.53.784,Memory and Syntax,2023.2.3,Win32,59.88023952,,,,,315.9029,317.9043,o,1,317.9043,317.9045,,0,,,317.9045,317.9051,,317.9051,317.9053,,0,111,111,111,1,cvmt/test_items/t112.jpeg,o,1.2185,,,,,,,,,,,,,,,,,,,,,,,,,,,
,,116652,115,1,2024-03-07_13h30.53.784,Memory and Syntax,2023.2.3,Win32,59.88023952,,,,,317.9056,319.8956,n,1,319.8957,319.8958,,0,,,319.8959,319.8965,,319.8965,319.8966,,0,112,112,112,1,cvmt/test_items/t113.jpeg,n,1.0371,,,,,,,,,,,,,,,,,,,,,,,,,,,
,,116652,115,1,2024-03-07_13h30.53.784,Memory and Syntax,2023.2.3,Win32,59.88023952,,,,,319.8969,321.8849,n,0,321.885,321.8852,,0,,,321.8853,321.8859,,321.8859,321.8861,,0,113,113,113,1,cvmt/test_items/t114.jpeg,o,0.8432,,,,,,,,,,,,,,,,,,,,,,,,,,,
,,116652,115,1,2024-03-07_13h30.53.784,Memory and Syntax,2023.2.3,Win32,59.88023952,,,,,321.8866,323.8849,o,1,323.885,323.8851,,0,,,323.8852,323.8858,,323.8858,323.886,,0,114,114,114,1,cvmt/test_items/t115.jpeg,o,0.784,,,,,,,,,,,,,,,,,,,,,,,,,,,
,,116652,115,1,2024-03-07_13h30.53.784,Memory and Syntax,2023.2.3,Win32,59.88023952,,,,,323.8864,325.8788,n,0,325.8788,325.8792,,0,,,325.8794,325.8799,,325.88,325.8801,,0,115,115,115,1,cvmt/test_items/t116.jpeg,o,0.7532,,,,,,,,,,,,,,,,,,,,,,,,,,,
,,116652,115,1,2024-03-07_13h30.53.784,Memory and Syntax,2023.2.3,Win32,59.88023952,,,,,325.8805,327.8752,o,1,327.8753,327.8755,,0,,,327.8755,327.876,,327.8761,327.8762,,0,116,116,116,1,cvmt/test_items/t117.jpeg,o,1.1597,,,,,,,,,,,,,,,,,,,,,,,,,,,
,,116652,115,1,2024-03-07_13h30.53.784,Memory and Syntax,2023.2.3,Win32,59.88023952,,,,,327.8765,329.8704,o,1,329.8705,329.8707,,0,,,329.8707,329.8712,,329.8712,329.8714,,0,117,117,117,1,cvmt/test_items/t118.jpeg,o,1.4222,,,,,,,,,,,,,,,,,,,,,,,,,,,
,,116652,115,1,2024-03-07_13h30.53.784,Memory and Syntax,2023.2.3,Win32,59.88023952,,,,,329.8719,331.8681,o,1,331.8681,331.8684,,0,,,331.8684,331.8691,,331.8692,331.8692,,0,118,118,118,1,cvmt/test_items/t119.jpeg,o,0.8761,,,,,,,,,,,,,,,,,,,,,,,,,,,
,,116652,115,1,2024-03-07_13h30.53.784,Memory and Syntax,2023.2.3,Win32,59.88023952,,,,,331.8695,333.8602,o,1,333.8602,333.8604,,0,,,333.8605,333.861,,333.861,333.861,,0,119,119,119,1,cvmt/test_items/t120.jpeg,o,1.5994,,,,,,,,,,,,,,,,,,,,,,,,,,,
,,116652,115,1,2024-03-07_13h30.53.784,Memory and Syntax,2023.2.3,Win32,59.88023952,,,,,333.8614,335.8513,o,1,335.8513,335.8516,,0,,,335.8516,335.8522,,335.8522,335.8523,,0,120,120,120,1,cvmt/test_items/t121.jpeg,o,0.9913,,,,,,,,,,,,,,,,,,,,,,,,,,,
,,116652,115,1,2024-03-07_13h30.53.784,Memory and Syntax,2023.2.3,Win32,59.88023952,,,,,335.8527,337.8535,o,1,337.8536,337.8538,,0,,,337.8538,337.8546,,337.8547,337.8548,,0,121,121,121,1,cvmt/test_items/t122.jpeg,o,1.0243,,,,,,,,,,,,,,,,,,,,,,,,,,,
,,116652,115,1,2024-03-07_13h30.53.784,Memory and Syntax,2023.2.3,Win32,59.88023952,,,,,337.8552,339.8512,o,0,339.8512,339.8514,,0,,,339.8514,339.852,,339.852,339.8521,,0,122,122,122,1,cvmt/test_items/t123.jpeg,n,1.4076,,,,,,,,,,,,,,,,,,,,,,,,,,,
,,116652,115,1,2024-03-07_13h30.53.784,Memory and Syntax,2023.2.3,Win32,59.88023952,,,,,339.8525,341.851,n,0,341.8511,341.8513,,0,,,341.8514,341.8519,,341.8519,341.8521,,0,123,123,123,1,cvmt/test_items/t124.jpeg,o,1.3519,,,,,,,,,,,,,,,,,,,,,,,,,,,
,,116652,115,1,2024-03-07_13h30.53.784,Memory and Syntax,2023.2.3,Win32,59.88023952,,,,,341.8524,343.8534,o,1,343.8534,343.8536,,0,,,343.8537,343.8543,,343.8543,343.8546,,0,124,124,124,1,cvmt/test_items/t125.jpeg,o,0.9728,,,,,,,,,,,,,,,,,,,,,,,,,,,
,,116652,115,1,2024-03-07_13h30.53.784,Memory and Syntax,2023.2.3,Win32,59.88023952,,,,,343.855,345.8533,o,1,345.8533,345.8536,,0,,,345.8536,345.8542,,345.8543,345.8545,,0,125,125,125,1,cvmt/test_items/t126.jpeg,o,1.1986,,,,,,,,,,,,,,,,,,,,,,,,,,,
,,116652,115,1,2024-03-07_13h30.53.784,Memory and Syntax,2023.2.3,Win32,59.88023952,,,,,345.855,347.8446,o,1,347.8446,347.8449,,0,,,347.845,347.8456,,347.8457,347.8458,,0,126,126,126,1,cvmt/test_items/t127.jpeg,o,1.4672,,,,,,,,,,,,,,,,,,,,,,,,,,,
,,116652,115,1,2024-03-07_13h30.53.784,Memory and Syntax,2023.2.3,Win32,59.88023952,,,,,347.8462,349.834,o,1,349.8341,349.8343,,0,,,349.8344,349.8348,,349.8348,349.8349,,0,127,127,127,1,cvmt/test_items/t128.jpeg,o,1.8488,,,,,,,,,,,,,,,,,,,,,,,,,,,
,,116652,115,1,2024-03-07_13h30.53.784,Memory and Syntax,2023.2.3,Win32,59.88023952,,,,,349.8354,351.8245,n,0,351.8245,351.8247,,0,,,351.8248,351.8253,,351.8253,351.8254,,0,128,128,128,1,cvmt/test_items/t129.jpeg,o,0.9131,,,,,,,,,,,,,,,,,,,,,,,,,,,
,,116652,115,1,2024-03-07_13h30.53.784,Memory and Syntax,2023.2.3,Win32,59.88023952,,,,,351.8257,353.8263,o,1,353.8264,353.8267,,0,,,353.8267,353.8273,,353.8273,353.8275,,0,129,129,129,1,cvmt/test_items/t130.jpeg,o,1.1583,,,,,,,,,,,,,,,,,,,,,,,,,,,
,,116652,115,1,2024-03-07_13h30.53.784,Memory and Syntax,2023.2.3,Win32,59.88023952,,,,,353.8278,355.8219,o,0,355.8219,355.8221,,0,,,355.8222,355.8227,,355.8227,355.8229,,0,130,130,130,1,cvmt/test_items/t131.jpeg,n,0.822,,,,,,,,,,,,,,,,,,,,,,,,,,,
,,116652,115,1,2024-03-07_13h30.53.784,Memory and Syntax,2023.2.3,Win32,59.88023952,,,,,355.8232,357.8254,,0,357.8255,358.901,o,1,1.0499,,358.9011,358.9228,,358.9228,358.9229,,0,131,131,131,1,cvmt/test_items/t132.jpeg,o,,,,,,,,,,,,,,,,,,,,,,,,,,,,
,,116652,115,1,2024-03-07_13h30.53.784,Memory and Syntax,2023.2.3,Win32,59.88023952,,,,,358.9232,360.9193,o,1,360.9194,360.9233,,0,,,360.9233,360.9239,,360.9239,360.924,,0,132,132,132,1,cvmt/test_items/t133.jpeg,o,0.717,,,,,,,,,,,,,,,,,,,,,,,,,,,
,,116652,115,1,2024-03-07_13h30.53.784,Memory and Syntax,2023.2.3,Win32,59.88023952,,,,,360.9244,362.917,,0,362.917,363.3943,o,1,0.4606,,363.3944,363.3949,,363.3949,363.3951,,0,133,133,133,1,cvmt/test_items/t134.jpeg,o,,,,,,,,,,,,,,,,,,,,,,,,,,,,
,,116652,115,1,2024-03-07_13h30.53.784,Memory and Syntax,2023.2.3,Win32,59.88023952,,,,,363.3954,365.3859,n,0,365.386,365.3862,,0,,,365.3862,365.3868,,365.3868,365.3869,,0,134,134,134,1,cvmt/test_items/t135.jpeg,o,1.2182,,,,,,,,,,,,,,,,,,,,,,,,,,,
,,116652,115,1,2024-03-07_13h30.53.784,Memory and Syntax,2023.2.3,Win32,59.88023952,,,,,,,,,,,,,,,,,,,,,,,,,,,,,,,,,,365.3876,365.3879,0.0003,365.4085,446.1924,space,79.8091,,446.2154,455.2213,2.3,8.9992,0,0,0,0,1,1,1,WOV,8B,Practiced the virtuoso many pieces.
,,116652,115,1,2024-03-07_13h30.53.784,Memory and Syntax,2023.2.3,Win32,59.88023952,,,,,,,,,,,,,,,,,,,,,,,,,,,,,,,,,,,,,,,,,,455.2221,458.431,7,3.2049,0,1,1,1,1,1,2,AS,6A,The rickety old boat sank.
,,116652,115,1,2024-03-07_13h30.53.784,Memory and Syntax,2023.2.3,Win32,59.88023952,,,,,,,,,,,,,,,,,,,,,,,,,,,,,,,,,,,,,,,,,,458.4314,461.7309,5.9,3.2956,0,2,2,2,1,1,3,WO,6A,The waiter set the table promptly.
,,116652,115,1,2024-03-07_13h30.53.784,Memory and Syntax,2023.2.3,Win32,59.88023952,,,,,,,,,,,,,,,,,,,,,,,,,,,,,,,,,,,,,,,,,,461.7314,467.7157,2.6,5.9754,0,3,3,3,1,1,4,control,12B,They anticipate that everybody you do will contact Megan.
,,116652,115,1,2024-03-07_13h30.53.784,Memory and Syntax,2023.2.3,Win32,59.88023952,,,,,,,,,,,,,,,,,,,,,,,,,,,,,,,,,,,,,,,,,,467.7165,471.0412,7,3.3212,0,4,4,4,1,1,5,ASV,11B,The cat moved himself away.
,,116652,115,1,2024-03-07_13h30.53.784,Memory and Syntax,2023.2.3,Win32,59.88023952,,,,,,,,,,,,,,,,,,,,,,,,,,,,,,,,,,,,,,,,,,471.0417,474.9473,2.9,3.9024,0,5,5,5,1,1,6,ASV,7B,She laughed herself at the dog.
,,116652,115,1,2024-03-07_13h30.53.784,Memory and Syntax,2023.2.3,Win32,59.88023952,,,,,,,,,,,,,,,,,,,,,,,,,,,,,,,,,,,,,,,,,,474.9478,478.5383,7,3.5884,0,6,6,6,1,1,7,AS,5A,The professor cried about the article.
,,116652,115,1,2024-03-07_13h30.53.784,Memory and Syntax,2023.2.3,Win32,59.88023952,,,,,,,,,,,,,,,,,,,,,,,,,,,,,,,,,,,,,,,,,,478.5389,481.7739,7,3.2326,0,7,7,7,1,1,8,WO,5A,My sibling expected a good grade.
,,116652,115,1,2024-03-07_13h30.53.784,Memory and Syntax,2023.2.3,Win32,59.88023952,,,,,,,,,,,,,,,,,,,,,,,,,,,,,,,,,,,,,,,,,,481.7743,489.0981,7,7.32,0,8,8,8,1,1,9,filler,1A,There has been a man considered violent.
,,116652,115,1,2024-03-07_13h30.53.784,Memory and Syntax,2023.2.3,Win32,59.88023952,,,,,,,,,,,,,,,,,,,,,,,,,,,,,,,,,,,,,,,,,,489.099,492.2966,7,3.1948,0,9,9,9,1,1,10,AS,2A,Taylor subscribed to the channel.
,,116652,115,1,2024-03-07_13h30.53.784,Memory and Syntax,2023.2.3,Win32,59.88023952,,,,,,,,,,,,,,,,,,,,,,,,,,,,,,,,,,,,,,,,,,492.2972,502.4144,2,10.1127,0,10,10,10,1,1,11,control,10B,There might fossils seem to be several miles underground.
,,116652,115,1,2024-03-07_13h30.53.784,Memory and Syntax,2023.2.3,Win32,59.88023952,,,,,,,,,,,,,,,,,,,,,,,,,,,,,,,,,,,,,,,,,,502.4151,505.446,2.4,3.027,0,11,11,11,1,1,12,ASV,8B,Esperanza sighed herself at the desk.
,,116652,115,1,2024-03-07_13h30.53.784,Memory and Syntax,2023.2.3,Win32,59.88023952,,,,,,,,,,,,,,,,,,,,,,,,,,,,,,,,,,,,,,,,,,505.4465,509.4127,4,3.9627,0,12,12,12,1,1,13,WOV,9B,Read we five pages each night.
,,116652,115,1,2024-03-07_13h30.53.784,Memory and Syntax,2023.2.3,Win32,59.88023952,,,,,,,,,,,,,,,,,,,,,,,,,,,,,,,,,,,,,,,,,,509.4134,513.4869,2.2,4.0708,0,13,13,13,1,1,14,WOV,7B,Frightened the eerie sound Seth.
,,116652,115,1,2024-03-07_13h30.53.784,Memory and Syntax,2023.2.3,Win32,59.88023952,,,,,,,,,,,,,,,,,,,,,,,,,,,,,,,,,,,,,,,,,,513.4874,516.3536,5.2,2.8625,0,14,14,14,1,1,15,filler,2A,"Arty is sick, and Mark is too."
,,116652,115,1,2024-03-07_13h30.53.784,Memory and Syntax,2023.2.3,Win32,59.88023952,,,,,,,,,,,,,,,,,,,,,,,,,,,,,,,,,,,,,,,,,,516.354,520.5236,5.2,4.167,0,15,15,15,1,1,16,ASV,9B,The prime minister confessed herself to bribery.
,,116652,115,1,2024-03-07_13h30.53.784,Memory and Syntax,2023.2.3,Win32,59.88023952,,,,,,,,,,,,,,,,,,,,,,,,,,,,,,,,,,,,,,,,,,520.5243,524.139,6.1,3.6104,0,16,16,16,1,1,17,control,7B,Olivia told Gregory when to exonerate herself.
,,116652,115,1,2024-03-07_13h30.53.784,Memory and Syntax,2023.2.3,Win32,59.88023952,,,,,,,,,,,,,,,,,,,,,,,,,,,,,,,,,,,,,,,,,,524.1396,528.6944,6.4,4.5526,0,17,17,17,1,1,18,control,11B,There are likely students to be in the library.
,,116652,115,1,2024-03-07_13h30.53.784,Memory and Syntax,2023.2.3,Win32,59.88023952,,,,,,,,,,,,,,,,,,,,,,,,,,,,,,,,,,,,,,,,,,528.6949,532.3284,6.9,3.6307,0,18,18,18,1,1,19,filler,5A,I told Mandy who would win the election.
,,116652,115,1,2024-03-07_13h30.53.784,Memory and Syntax,2023.2.3,Win32,59.88023952,,,,,,,,,,,,,,,,,,,,,,,,,,,,,,,,,,,,,,,,,,532.3289,535.8948,5.6,3.5621,0,19,19,19,1,1,20,control,9B,We consider there three problems.
,,116652,115,1,2024-03-07_13h30.53.784,Memory and Syntax,2023.2.3,Win32,59.88023952,,,,,,,,,,,,,,,,,,,,,,,,,,,,,,,,,,,,,,,,,,535.8952,539.1446,2.2,3.2462,0,20,20,20,1,1,21,control,8B,She called Victor and yelled at.
,,116652,115,1,2024-03-07_13h30.53.784,Memory and Syntax,2023.2.3,Win32,59.88023952,,,,,,,,,,,,,,,,,,,,,,,,,,,,,,,,,,,,,,,,,,539.145,543.0451,5.3,3.8979,0,21,21,21,1,1,22,WO,4A,The bully pushed every student.
,,116652,115,1,2024-03-07_13h30.53.784,Memory and Syntax,2023.2.3,Win32,59.88023952,,,,,,,,,,,,,,,,,,,,,,,,,,,,,,,,,,,,,,,,,,543.0456,546.6951,7,3.6466,0,22,22,22,1,1,23,WO,3A,Miguel baked delicious cupcakes.
,,116652,115,1,2024-03-07_13h30.53.784,Memory and Syntax,2023.2.3,Win32,59.88023952,,,,,,,,,,,,,,,,,,,,,,,,,,,,,,,,,,,,,,,,,,546.6956,550.6046,6.9,3.9061,0,23,23,23,1,1,24,WO,1A,Abby answered the question.
,,116652,115,1,2024-03-07_13h30.53.784,Memory and Syntax,2023.2.3,Win32,59.88023952,,,,,,,,,,,,,,,,,,,,,,,,,,,,,,,,,,,,,,,,,,550.605,554.7608,6.9,4.1531,0,24,24,24,1,1,25,filler,3A,Brittany attempted to touch the porcupine.
,,116652,115,1,2024-03-07_13h30.53.784,Memory and Syntax,2023.2.3,Win32,59.88023952,,,,,,,,,,,,,,,,,,,,,,,,,,,,,,,,,,,,,,,,,,554.7615,557.4694,6.9,2.7053,0,25,25,25,1,1,26,AS,3A,Gracie stayed by the window.
,,116652,115,1,2024-03-07_13h30.53.784,Memory and Syntax,2023.2.3,Win32,59.88023952,,,,,,,,,,,,,,,,,,,,,,,,,,,,,,,,,,,,,,,,,,557.4699,561.2772,3.1,3.8051,0,26,26,26,1,1,27,WOV,11B,Wrote she her boyfriend a poem.
,,116652,115,1,2024-03-07_13h30.53.784,Memory and Syntax,2023.2.3,Win32,59.88023952,,,,,,,,,,,,,,,,,,,,,,,,,,,,,,,,,,,,,,,,,,561.2777,564.7603,1.8,3.4796,0,27,27,27,1,1,28,WOV,12B,Watched Lily a movie.
,,116652,115,1,2024-03-07_13h30.53.784,Memory and Syntax,2023.2.3,Win32,59.88023952,,,,,,,,,,,,,,,,,,,,,,,,,,,,,,,,,,,,,,,,,,564.7609,567.8024,7,3.0386,0,28,28,28,1,1,29,WO,2A,Jackie won the close race.
,,116652,115,1,2024-03-07_13h30.53.784,Memory and Syntax,2023.2.3,Win32,59.88023952,,,,,,,,,,,,,,,,,,,,,,,,,,,,,,,,,,,,,,,,,,567.8029,571.1705,6.9,3.3652,0,29,29,29,1,1,30,AS,4A,Tomas drank from the water pitcher.
,,116652,115,1,2024-03-07_13h30.53.784,Memory and Syntax,2023.2.3,Win32,59.88023952,,,,,,,,,,,,,,,,,,,,,,,,,,,,,,,,,,,,,,,,,,571.171,574.9202,2.5,3.7463,0,30,30,30,1,1,31,WOV,10B,Kissed Kareem his boyfriend.
,,116652,115,1,2024-03-07_13h30.53.784,Memory and Syntax,2023.2.3,Win32,59.88023952,,,,,,,,,,,,,,,,,,,,,,,,,,,,,,,,,,,,,,,,,,574.9207,578.816,6.6,3.8932,0,31,31,31,1,1,32,ASV,10B,The children quieted themselves.
,,116652,115,1,2024-03-07_13h30.53.784,Memory and Syntax,2023.2.3,Win32,59.88023952,,,,,,,,,,,,,,,,,,,,,,,,,,,,,,,,,,,,,,,,,,578.8164,581.9265,6.9,3.1078,0,32,32,32,1,1,33,AS,1A,They fidgeted in their chairs.
,,116652,115,1,2024-03-07_13h30.53.784,Memory and Syntax,2023.2.3,Win32,59.88023952,,,,,,,,,,,,,,,,,,,,,,,,,,,,,,,,,,,,,,,,,,581.9268,586.1098,6.9,4.1804,0,33,33,33,1,1,34,filler,4A,It seems to him that Kim solved the problem.
,,116652,115,1,2024-03-07_13h30.53.784,Memory and Syntax,2023.2.3,Win32,59.88023952,,,,,,,,,,,,,,,,,,,,,,,,,,,,,,,,,,,,,,,,,,586.1103,588.851,6.9,2.7383,0,34,34,34,1,1,35,ASV,12B,The swimmers shaved themselves.