load.started,load.stopped,Sona ID,Participant ID,Session,date,expName,psychopyVersion,OS,frameRate,cvmtInstr.started,cvmtInstr.stopped,cvmtTaskInstr.started,cvmtTaskInstr.stopped,presentDesign.started,presentDesign.stopped,cvmt_key_resp.keys,cvmt_key_resp.corr,cvmt_key_resp.rt,cvmt_key_resp.duration,cvmtNoResp.started,cvmtNoResp.stopped,cvmt_key_resp2.keys,cvmt_key_resp2.corr,cvmtSampleFB.started,cvmtSampleFB.stopped,key_resp_15.keys,cvmtSampleFBFinal.started,cvmtSampleFBFinal.stopped,cvmt_final_samp_fb_key_resp.keys,cvmtTrials.thisRepN,cvmtTrials.thisTrialN,cvmtTrials.thisN,cvmtTrials.thisIndex,cvmtTrials.ran,cvmt_design,old_or_new,key_resp_15.rt,key_resp_15.duration,cvmt_final_samp_fb_key_resp.rt,cvmt_final_samp_fb_key_resp.duration,cvmt_key_resp2.rt,cvmt_key_resp2.duration,cvmtDelay.started,cvmtDelay.stopped,cvmt timer,engAJT_instr.started,engAJT_instr.stopped,start_ajt.keys,start_ajt.rt,start_ajt.duration,engAJT.started,engAJT.stopped,acceptability.response,acceptability.rt,engAJT_trials.thisRepN,engAJT_trials.thisTrialN,engAJT_trials.thisN,engAJT_trials.thisIndex,engAJT_trials.ran,ajt_list,list_position,condition,item,testSent
0.0009,0.195,117220,080,1,2024-03-06_22h16.09.280,Memory and Syntax,2023.2.3,Win32,144.9275362,,,,,,,,,,,,,,,,,,,,,,,,,,,,,,,,,,,,,,,,,,,,,,,,,,,,,,,
,,117220,080,1,2024-03-06_22h16.09.280,Memory and Syntax,2023.2.3,Win32,144.9275362,0.2034,45.7201,45.7229,48.2025,48.2229,50.209,n,1,1.8886,,50.2095,50.2115,,0,50.2119,50.2132,,50.2136,50.2148,,0,0,0,0,1,cvmt/sample/s1.jpg,n,,,,,,,,,,,,,,,,,,,,,,,,,,,,
,,117220,080,1,2024-03-06_22h16.09.280,Memory and Syntax,2023.2.3,Win32,144.9275362,,,,,50.2161,52.2028,n,1,0.9268,,52.2032,52.2042,,0,52.2046,52.2056,,52.206,52.2069,,0,1,1,1,1,cvmt/sample/s2.jpg,n,,,,,,,,,,,,,,,,,,,,,,,,,,,,
,,117220,080,1,2024-03-06_22h16.09.280,Memory and Syntax,2023.2.3,Win32,144.9275362,,,,,52.2081,54.2025,o,1,1.2963,,54.2029,54.2037,,0,54.204,54.2052,,54.2056,54.2063,,0,2,2,2,1,cvmt/sample/s3.jpg,o,,,,,,,,,,,,,,,,,,,,,,,,,,,,
,,117220,080,1,2024-03-06_22h16.09.280,Memory and Syntax,2023.2.3,Win32,144.9275362,,,,,54.2076,56.2022,n,1,0.7127,,56.2026,56.2034,,0,56.2039,56.2048,,56.2051,56.2059,,0,3,3,3,1,cvmt/sample/s4.jpg,n,,,,,,,,,,,,,,,,,,,,,,,,,,,,
,,117220,080,1,2024-03-06_22h16.09.280,Memory and Syntax,2023.2.3,Win32,144.9275362,,,,,56.2071,58.2335,n,1,0.8803,,58.2339,58.2348,,0,58.2352,58.2361,,58.2365,58.2374,,0,4,4,4,1,cvmt/sample/s5.jpg,n,,,,,,,,,,,,,,,,,,,,,,,,,,,,
,,117220,080,1,2024-03-06_22h16.09.280,Memory and Syntax,2023.2.3,Win32,144.9275362,,,,,58.2385,60.2358,n,1,0.8121,,60.2362,60.2371,,0,60.2375,60.2384,,60.2388,60.2397,,0,5,5,5,1,cvmt/sample/s6.jpg,n,,,,,,,,,,,,,,,,,,,,,,,,,,,,
,,117220,080,1,2024-03-06_22h16.09.280,Memory and Syntax,2023.2.3,Win32,144.9275362,,,,,60.241,62.2527,o,1,1.1341,,62.2531,62.2541,,0,62.2546,62.2554,,62.2558,62.2566,,0,6,6,6,1,cvmt/sample/s7.jpg,o,,,,,,,,,,,,,,,,,,,,,,,,,,,,
,,117220,080,1,2024-03-06_22h16.09.280,Memory and Syntax,2023.2.3,Win32,144.9275362,,,,,62.2577,64.2543,o,0,1.0629,,64.2547,64.2557,,0,64.2562,68.3543,c,68.3547,68.3554,,0,7,7,7,1,cvmt/sample/s8.jpg,n,4.0666,,,,,,,,,,,,,,,,,,,,,,,,,,,
,,117220,080,1,2024-03-06_22h16.09.280,Memory and Syntax,2023.2.3,Win32,144.9275362,,,,,68.3601,70.3529,n,1,1.2349,,70.3533,70.355,,0,70.3553,70.3568,,70.3571,70.3579,,0,8,8,8,1,cvmt/sample/s9.jpg,n,,,,,,,,,,,,,,,,,,,,,,,,,,,,
,,117220,080,1,2024-03-06_22h16.09.280,Memory and Syntax,2023.2.3,Win32,144.9275362,,,,,70.3591,72.3527,n,1,0.9151,,72.3532,72.3541,,0,72.3545,72.3553,,72.3556,72.3564,,0,9,9,9,1,cvmt/sample/s10.jpg,n,,,,,,,,,,,,,,,,,,,,,,,,,,,,
,,117220,080,1,2024-03-06_22h16.09.280,Memory and Syntax,2023.2.3,Win32,144.9275362,,,,,72.3575,74.3527,o,1,1.0501,,74.3532,74.3541,,0,74.3545,74.3554,,74.3558,81.1132,c,0,10,10,10,1,cvmt/sample/s11.jpg,o,,,6.7394,,,,,,,,,,,,,,,,,,,,,,,,,
,,117220,080,1,2024-03-06_22h16.09.280,Memory and Syntax,2023.2.3,Win32,144.9275362,,,81.1146,82.8707,82.8746,84.9023,n,1,1.1089,,84.9024,84.903,,0,84.903,84.9032,,84.9032,84.9038,,0,0,0,0,1,cvmt/test_items/t1.jpeg,n,,,,,,,,,,,,,,,,,,,,,,,,,,,,
,,117220,080,1,2024-03-06_22h16.09.280,Memory and Syntax,2023.2.3,Win32,144.9275362,,,,,84.9042,86.9025,n,1,1.0169,,86.9025,86.9026,,0,86.9026,86.9028,,86.9028,86.9028,,0,1,1,1,1,cvmt/test_items/t2.jpeg,n,,,,,,,,,,,,,,,,,,,,,,,,,,,,
,,117220,080,1,2024-03-06_22h16.09.280,Memory and Syntax,2023.2.3,Win32,144.9275362,,,,,86.9029,88.9036,n,0,0.7241,,88.9036,88.9036,,0,88.9036,88.9037,,88.9037,88.9037,,0,2,2,2,1,cvmt/test_items/t3.jpeg,o,,,,,,,,,,,,,,,,,,,,,,,,,,,,
,,117220,080,1,2024-03-06_22h16.09.280,Memory and Syntax,2023.2.3,Win32,144.9275362,,,,,88.9038,90.9019,n,0,0.8122,,90.9019,90.902,,0,90.9021,90.9022,,90.9022,90.9022,,0,3,3,3,1,cvmt/test_items/t4.jpeg,o,,,,,,,,,,,,,,,,,,,,,,,,,,,,
,,117220,080,1,2024-03-06_22h16.09.280,Memory and Syntax,2023.2.3,Win32,144.9275362,,,,,90.9023,92.9019,n,0,0.6585,,92.902,92.9021,,0,92.9021,92.9022,,92.9022,92.9022,,0,4,4,4,1,cvmt/test_items/t5.jpeg,o,,,,,,,,,,,,,,,,,,,,,,,,,,,,
,,117220,080,1,2024-03-06_22h16.09.280,Memory and Syntax,2023.2.3,Win32,144.9275362,,,,,92.9023,94.9022,n,0,0.9246,,94.9022,94.9023,,0,94.9023,94.9024,,94.9024,94.9026,,0,5,5,5,1,cvmt/test_items/t6.jpeg,o,,,,,,,,,,,,,,,,,,,,,,,,,,,,
,,117220,080,1,2024-03-06_22h16.09.280,Memory and Syntax,2023.2.3,Win32,144.9275362,,,,,94.9027,96.8718,n,0,0.6449,,96.8718,96.8719,,0,96.8719,96.8721,,96.8721,96.8721,,0,6,6,6,1,cvmt/test_items/t7.jpeg,o,,,,,,,,,,,,,,,,,,,,,,,,,,,,
,,117220,080,1,2024-03-06_22h16.09.280,Memory and Syntax,2023.2.3,Win32,144.9275362,,,,,96.8721,98.8856,o,1,1.2278,,98.8857,98.8858,,0,98.8858,98.8859,,98.8859,98.8859,,0,7,7,7,1,cvmt/test_items/t8.jpeg,o,,,,,,,,,,,,,,,,,,,,,,,,,,,,
,,117220,080,1,2024-03-06_22h16.09.280,Memory and Syntax,2023.2.3,Win32,144.9275362,,,,,98.8859,100.8705,n,0,1.0177,,100.8705,100.8706,,0,100.8706,100.8707,,100.8707,100.8708,,0,8,8,8,1,cvmt/test_items/t9.jpeg,o,,,,,,,,,,,,,,,,,,,,,,,,,,,,
,,117220,080,1,2024-03-06_22h16.09.280,Memory and Syntax,2023.2.3,Win32,144.9275362,,,,,100.8708,102.8703,n,0,0.912,,102.8704,102.8705,,0,102.8705,102.8707,,102.8707,102.8707,,0,9,9,9,1,cvmt/test_items/t10.jpeg,o,,,,,,,,,,,,,,,,,,,,,,,,,,,,
,,117220,080,1,2024-03-06_22h16.09.280,Memory and Syntax,2023.2.3,Win32,144.9275362,,,,,102.8708,104.8522,n,1,0.7787,,104.8522,104.8523,,0,104.8523,104.8525,,104.8525,104.8525,,0,10,10,10,1,cvmt/test_items/t11.jpeg,n,,,,,,,,,,,,,,,,,,,,,,,,,,,,
,,117220,080,1,2024-03-06_22h16.09.280,Memory and Syntax,2023.2.3,Win32,144.9275362,,,,,104.8526,106.8536,n,0,0.7749,,106.8536,106.8536,,0,106.8536,106.8538,,106.8539,106.8539,,0,11,11,11,1,cvmt/test_items/t12.jpeg,o,,,,,,,,,,,,,,,,,,,,,,,,,,,,
,,117220,080,1,2024-03-06_22h16.09.280,Memory and Syntax,2023.2.3,Win32,144.9275362,,,,,106.8539,108.8529,n,0,1.0133,,108.853,108.853,,0,108.853,108.8532,,108.8532,108.8533,,0,12,12,12,1,cvmt/test_items/t13.jpeg,o,,,,,,,,,,,,,,,,,,,,,,,,,,,,
,,117220,080,1,2024-03-06_22h16.09.280,Memory and Syntax,2023.2.3,Win32,144.9275362,,,,,108.8534,110.8357,n,0,0.7275,,110.8358,110.8358,,0,110.8358,110.8359,,110.8359,110.8359,,0,13,13,13,1,cvmt/test_items/t14.jpeg,o,,,,,,,,,,,,,,,,,,,,,,,,,,,,
,,117220,080,1,2024-03-06_22h16.09.280,Memory and Syntax,2023.2.3,Win32,144.9275362,,,,,110.836,112.8353,o,1,1.2381,,112.8353,112.8354,,0,112.8354,112.8355,,112.8355,112.8355,,0,14,14,14,1,cvmt/test_items/t15.jpeg,o,,,,,,,,,,,,,,,,,,,,,,,,,,,,
,,117220,080,1,2024-03-06_22h16.09.280,Memory and Syntax,2023.2.3,Win32,144.9275362,,,,,112.8357,114.8234,o,1,0.9991,,114.8234,114.8235,,0,114.8235,114.8236,,114.8236,114.8236,,0,15,15,15,1,cvmt/test_items/t16.jpeg,o,,,,,,,,,,,,,,,,,,,,,,,,,,,,
,,117220,080,1,2024-03-06_22h16.09.280,Memory and Syntax,2023.2.3,Win32,144.9275362,,,,,114.8237,116.8092,o,1,0.7297,,116.8093,116.8093,,0,116.8093,116.8095,,116.8095,116.8095,,0,16,16,16,1,cvmt/test_items/t17.jpeg,o,,,,,,,,,,,,,,,,,,,,,,,,,,,,
,,117220,080,1,2024-03-06_22h16.09.280,Memory and Syntax,2023.2.3,Win32,144.9275362,,,,,116.8096,118.8019,n,0,1.1461,,118.8019,118.8021,,0,118.8021,118.8023,,118.8023,118.8023,,0,17,17,17,1,cvmt/test_items/t18.jpeg,o,,,,,,,,,,,,,,,,,,,,,,,,,,,,
,,117220,080,1,2024-03-06_22h16.09.280,Memory and Syntax,2023.2.3,Win32,144.9275362,,,,,118.8023,120.7868,n,1,0.6254,,120.7868,120.7869,,0,120.7869,120.7871,,120.7871,120.7871,,0,18,18,18,1,cvmt/test_items/t19.jpeg,n,,,,,,,,,,,,,,,,,,,,,,,,,,,,
,,117220,080,1,2024-03-06_22h16.09.280,Memory and Syntax,2023.2.3,Win32,144.9275362,,,,,120.7872,122.7853,o,1,0.9252,,122.7854,122.7855,,0,122.7855,122.7856,,122.7856,122.7856,,0,19,19,19,1,cvmt/test_items/t20.jpeg,o,,,,,,,,,,,,,,,,,,,,,,,,,,,,
,,117220,080,1,2024-03-06_22h16.09.280,Memory and Syntax,2023.2.3,Win32,144.9275362,,,,,122.7857,124.7772,o,1,0.9469,,124.7773,124.7774,,0,124.7774,124.7775,,124.7775,124.7776,,0,20,20,20,1,cvmt/test_items/t21.jpeg,o,,,,,,,,,,,,,,,,,,,,,,,,,,,,
,,117220,080,1,2024-03-06_22h16.09.280,Memory and Syntax,2023.2.3,Win32,144.9275362,,,,,124.7776,126.769,o,1,0.8218,,126.769,126.7691,,0,126.7691,126.7692,,126.7692,126.7692,,0,21,21,21,1,cvmt/test_items/t22.jpeg,o,,,,,,,,,,,,,,,,,,,,,,,,,,,,
,,117220,080,1,2024-03-06_22h16.09.280,Memory and Syntax,2023.2.3,Win32,144.9275362,,,,,126.7693,128.7688,o,0,1.1077,,128.7688,128.7689,,0,128.7689,128.7691,,128.7691,128.7691,,0,22,22,22,1,cvmt/test_items/t23.jpeg,n,,,,,,,,,,,,,,,,,,,,,,,,,,,,
,,117220,080,1,2024-03-06_22h16.09.280,Memory and Syntax,2023.2.3,Win32,144.9275362,,,,,128.7692,130.7618,o,0,1.8157,,130.7618,130.7619,,0,130.7619,130.7621,,130.7621,130.7621,,0,23,23,23,1,cvmt/test_items/t24.jpeg,n,,,,,,,,,,,,,,,,,,,,,,,,,,,,
,,117220,080,1,2024-03-06_22h16.09.280,Memory and Syntax,2023.2.3,Win32,144.9275362,,,,,130.7621,132.754,n,0,0.8927,,132.754,132.754,,0,132.754,132.7541,,132.7541,132.7541,,0,24,24,24,1,cvmt/test_items/t25.jpeg,o,,,,,,,,,,,,,,,,,,,,,,,,,,,,
,,117220,080,1,2024-03-06_22h16.09.280,Memory and Syntax,2023.2.3,Win32,144.9275362,,,,,132.7542,134.769,o,0,0.9474,,134.769,134.7691,,0,134.7691,134.7693,,134.7693,134.7693,,0,25,25,25,1,cvmt/test_items/t26.jpeg,n,,,,,,,,,,,,,,,,,,,,,,,,,,,,
,,117220,080,1,2024-03-06_22h16.09.280,Memory and Syntax,2023.2.3,Win32,144.9275362,,,,,134.7694,136.7758,o,1,0.7986,,136.7758,136.7761,,0,136.7761,136.7762,,136.7762,136.7762,,0,26,26,26,1,cvmt/test_items/t27.jpeg,o,,,,,,,,,,,,,,,,,,,,,,,,,,,,
,,117220,080,1,2024-03-06_22h16.09.280,Memory and Syntax,2023.2.3,Win32,144.9275362,,,,,136.7763,138.7868,n,1,0.9153,,138.7868,138.7868,,0,138.7868,138.787,,138.787,138.787,,0,27,27,27,1,cvmt/test_items/t28.jpeg,n,,,,,,,,,,,,,,,,,,,,,,,,,,,,
,,117220,080,1,2024-03-06_22h16.09.280,Memory and Syntax,2023.2.3,Win32,144.9275362,,,,,138.7871,140.787,o,0,1.2804,,140.787,140.7871,,0,140.7871,140.7872,,140.7872,140.7872,,0,28,28,28,1,cvmt/test_items/t29.jpeg,n,,,,,,,,,,,,,,,,,,,,,,,,,,,,
,,117220,080,1,2024-03-06_22h16.09.280,Memory and Syntax,2023.2.3,Win32,144.9275362,,,,,140.7873,142.77,o,1,1.395,,142.77,142.7701,,0,142.7701,142.7702,,142.7702,142.7703,,0,29,29,29,1,cvmt/test_items/t30.jpeg,o,,,,,,,,,,,,,,,,,,,,,,,,,,,,
,,117220,080,1,2024-03-06_22h16.09.280,Memory and Syntax,2023.2.3,Win32,144.9275362,,,,,142.7703,144.769,o,1,0.7545,,144.769,144.7692,,0,144.7692,144.7693,,144.7694,144.7694,,0,30,30,30,1,cvmt/test_items/t31.jpeg,o,,,,,,,,,,,,,,,,,,,,,,,,,,,,
,,117220,080,1,2024-03-06_22h16.09.280,Memory and Syntax,2023.2.3,Win32,144.9275362,,,,,144.7694,146.7702,n,1,0.9403,,146.7703,146.7704,,0,146.7704,146.7705,,146.7705,146.7705,,0,31,31,31,1,cvmt/test_items/t32.jpeg,n,,,,,,,,,,,,,,,,,,,,,,,,,,,,
,,117220,080,1,2024-03-06_22h16.09.280,Memory and Syntax,2023.2.3,Win32,144.9275362,,,,,146.7706,148.7689,o,0,0.8989,,148.7689,148.769,,0,148.769,148.7692,,148.7692,148.7692,,0,32,32,32,1,cvmt/test_items/t33.jpeg,n,,,,,,,,,,,,,,,,,,,,,,,,,,,,
,,117220,080,1,2024-03-06_22h16.09.280,Memory and Syntax,2023.2.3,Win32,144.9275362,,,,,148.7693,150.7694,o,1,0.9142,,150.7694,150.7694,,0,150.7694,150.7696,,150.7696,150.7696,,0,33,33,33,1,cvmt/test_items/t34.jpeg,o,,,,,,,,,,,,,,,,,,,,,,,,,,,,
,,117220,080,1,2024-03-06_22h16.09.280,Memory and Syntax,2023.2.3,Win32,144.9275362,,,,,150.7697,152.7638,o,0,1.0251,,152.7638,152.7638,,0,152.7638,152.764,,152.764,152.764,,0,34,34,34,1,cvmt/test_items/t35.jpeg,n,,,,,,,,,,,,,,,,,,,,,,,,,,,,
,,117220,080,1,2024-03-06_22h16.09.280,Memory and Syntax,2023.2.3,Win32,144.9275362,,,,,152.764,154.7559,o,1,0.81,,154.7559,154.7559,,0,154.7559,154.7561,,154.7561,154.7561,,0,35,35,35,1,cvmt/test_items/t36.jpeg,o,,,,,,,,,,,,,,,,,,,,,,,,,,,,
,,117220,080,1,2024-03-06_22h16.09.280,Memory and Syntax,2023.2.3,Win32,144.9275362,,,,,154.7562,156.7525,n,1,1.3364,,156.7525,156.7526,,0,156.7526,156.7527,,156.7527,156.7527,,0,36,36,36,1,cvmt/test_items/t37.jpeg,n,,,,,,,,,,,,,,,,,,,,,,,,,,,,
,,117220,080,1,2024-03-06_22h16.09.280,Memory and Syntax,2023.2.3,Win32,144.9275362,,,,,156.7528,158.7376,o,1,0.8466,,158.7376,158.7377,,0,158.7377,158.7379,,158.7379,158.7379,,0,37,37,37,1,cvmt/test_items/t38.jpeg,o,,,,,,,,,,,,,,,,,,,,,,,,,,,,
,,117220,080,1,2024-03-06_22h16.09.280,Memory and Syntax,2023.2.3,Win32,144.9275362,,,,,158.738,160.7355,n,1,0.8644,,160.7355,160.7356,,0,160.7356,160.7358,,160.7358,160.7359,,0,38,38,38,1,cvmt/test_items/t39.jpeg,n,,,,,,,,,,,,,,,,,,,,,,,,,,,,
,,117220,080,1,2024-03-06_22h16.09.280,Memory and Syntax,2023.2.3,Win32,144.9275362,,,,,160.7359,162.7191,n,0,1.0631,,162.7191,162.7192,,0,162.7192,162.7193,,162.7193,162.7193,,0,39,39,39,1,cvmt/test_items/t40.jpeg,o,,,,,,,,,,,,,,,,,,,,,,,,,,,,
,,117220,080,1,2024-03-06_22h16.09.280,Memory and Syntax,2023.2.3,Win32,144.9275362,,,,,162.7194,164.7359,o,0,1.9519,,164.7359,164.736,,0,164.736,164.7362,,164.7362,164.7362,,0,40,40,40,1,cvmt/test_items/t41.jpeg,n,,,,,,,,,,,,,,,,,,,,,,,,,,,,
,,117220,080,1,2024-03-06_22h16.09.280,Memory and Syntax,2023.2.3,Win32,144.9275362,,,,,164.7363,166.7356,n,0,0.9352,,166.7357,166.7359,,0,166.7359,166.736,,166.736,166.736,,0,41,41,41,1,cvmt/test_items/t42.jpeg,o,,,,,,,,,,,,,,,,,,,,,,,,,,,,
,,117220,080,1,2024-03-06_22h16.09.280,Memory and Syntax,2023.2.3,Win32,144.9275362,,,,,166.7361,168.7527,o,1,0.8091,,168.7527,168.7527,,0,168.7527,168.7528,,168.7528,168.7529,,0,42,42,42,1,cvmt/test_items/t43.jpeg,o,,,,,,,,,,,,,,,,,,,,,,,,,,,,
,,117220,080,1,2024-03-06_22h16.09.280,Memory and Syntax,2023.2.3,Win32,144.9275362,,,,,168.753,170.7523,n,1,1.3288,,170.7523,170.7524,,0,170.7524,170.7526,,170.7526,170.7526,,0,43,43,43,1,cvmt/test_items/t44.jpeg,n,,,,,,,,,,,,,,,,,,,,,,,,,,,,
,,117220,080,1,2024-03-06_22h16.09.280,Memory and Syntax,2023.2.3,Win32,144.9275362,,,,,170.7527,172.7525,n,0,1.63,,172.7525,172.7526,,0,172.7526,172.7527,,172.7527,172.7528,,0,44,44,44,1,cvmt/test_items/t45.jpeg,o,,,,,,,,,,,,,,,,,,,,,,,,,,,,
,,117220,080,1,2024-03-06_22h16.09.280,Memory and Syntax,2023.2.3,Win32,144.9275362,,,,,172.7528,174.7402,o,1,1.1456,,174.7402,174.7402,,0,174.7402,174.7404,,174.7404,174.7405,,0,45,45,45,1,cvmt/test_items/t46.jpeg,o,,,,,,,,,,,,,,,,,,,,,,,,,,,,
,,117220,080,1,2024-03-06_22h16.09.280,Memory and Syntax,2023.2.3,Win32,144.9275362,,,,,174.7405,176.7376,o,1,1.0309,,176.7377,176.7377,,0,176.7377,176.7378,,176.7378,176.738,,0,46,46,46,1,cvmt/test_items/t47.jpeg,o,,,,,,,,,,,,,,,,,,,,,,,,,,,,
,,117220,080,1,2024-03-06_22h16.09.280,Memory and Syntax,2023.2.3,Win32,144.9275362,,,,,176.738,178.7372,o,0,0.8135,,178.7373,178.7373,,0,178.7373,178.7375,,178.7375,178.7375,,0,47,47,47,1,cvmt/test_items/t48.jpeg,n,,,,,,,,,,,,,,,,,,,,,,,,,,,,
,,117220,080,1,2024-03-06_22h16.09.280,Memory and Syntax,2023.2.3,Win32,144.9275362,,,,,178.7376,180.7525,o,1,0.8747,,180.7525,180.7526,,0,180.7526,180.7527,,180.7527,180.7528,,0,48,48,48,1,cvmt/test_items/t49.jpeg,o,,,,,,,,,,,,,,,,,,,,,,,,,,,,
,,117220,080,1,2024-03-06_22h16.09.280,Memory and Syntax,2023.2.3,Win32,144.9275362,,,,,180.7528,182.7522,n,0,1.647,,182.7523,182.7523,,0,182.7523,182.7525,,182.7525,182.7525,,0,49,49,49,1,cvmt/test_items/t50.jpeg,o,,,,,,,,,,,,,,,,,,,,,,,,,,,,
,,117220,080,1,2024-03-06_22h16.09.280,Memory and Syntax,2023.2.3,Win32,144.9275362,,,,,182.7525,184.7374,n,1,1.3328,,184.7374,184.7374,,0,184.7374,184.7377,,184.7377,184.7377,,0,50,50,50,1,cvmt/test_items/t51.jpeg,n,,,,,,,,,,,,,,,,,,,,,,,,,,,,
,,117220,080,1,2024-03-06_22h16.09.280,Memory and Syntax,2023.2.3,Win32,144.9275362,,,,,184.7379,186.7358,o,1,1.1307,,186.7358,186.7359,,0,186.7359,186.7361,,186.7361,186.7362,,0,51,51,51,1,cvmt/test_items/t52.jpeg,o,,,,,,,,,,,,,,,,,,,,,,,,,,,,
,,117220,080,1,2024-03-06_22h16.09.280,Memory and Syntax,2023.2.3,Win32,144.9275362,,,,,186.7363,188.7264,o,1,0.9301,,188.7264,188.7264,,0,188.7265,188.7265,,188.7266,188.7266,,0,52,52,52,1,cvmt/test_items/t53.jpeg,o,,,,,,,,,,,,,,,,,,,,,,,,,,,,
,,117220,080,1,2024-03-06_22h16.09.280,Memory and Syntax,2023.2.3,Win32,144.9275362,,,,,188.7267,190.7238,o,1,0.5952,,190.7239,190.7239,,0,190.7239,190.724,,190.724,190.724,,0,53,53,53,1,cvmt/test_items/t54.jpeg,o,,,,,,,,,,,,,,,,,,,,,,,,,,,,
,,117220,080,1,2024-03-06_22h16.09.280,Memory and Syntax,2023.2.3,Win32,144.9275362,,,,,190.7241,192.7189,o,1,0.848,,192.7189,192.719,,0,192.719,192.7191,,192.7191,192.7191,,0,54,54,54,1,cvmt/test_items/t55.jpeg,o,,,,,,,,,,,,,,,,,,,,,,,,,,,,
,,117220,080,1,2024-03-06_22h16.09.280,Memory and Syntax,2023.2.3,Win32,144.9275362,,,,,192.7192,194.7357,o,1,1.6318,,194.7358,194.7358,,0,194.7359,194.7359,,194.7359,194.736,,0,55,55,55,1,cvmt/test_items/t56.jpeg,o,,,,,,,,,,,,,,,,,,,,,,,,,,,,
,,117220,080,1,2024-03-06_22h16.09.280,Memory and Syntax,2023.2.3,Win32,144.9275362,,,,,194.7361,196.7249,o,1,0.7445,,196.7249,196.7251,,0,196.7251,196.7252,,196.7252,196.7252,,0,56,56,56,1,cvmt/test_items/t57.jpeg,o,,,,,,,,,,,,,,,,,,,,,,,,,,,,
,,117220,080,1,2024-03-06_22h16.09.280,Memory and Syntax,2023.2.3,Win32,144.9275362,,,,,196.7252,198.7209,n,1,1.333,,198.7209,198.7209,,0,198.7209,198.7211,,198.7211,198.7211,,0,57,57,57,1,cvmt/test_items/t58.jpeg,n,,,,,,,,,,,,,,,,,,,,,,,,,,,,
,,117220,080,1,2024-03-06_22h16.09.280,Memory and Syntax,2023.2.3,Win32,144.9275362,,,,,198.7213,200.7207,o,0,1.409,,200.7207,200.7208,,0,200.7208,200.7209,,200.7209,200.721,,0,58,58,58,1,cvmt/test_items/t59.jpeg,n,,,,,,,,,,,,,,,,,,,,,,,,,,,,
,,117220,080,1,2024-03-06_22h16.09.280,Memory and Syntax,2023.2.3,Win32,144.9275362,,,,,200.7211,202.7202,o,1,1.0975,,202.7203,202.7203,,0,202.7204,202.7206,,202.7206,202.7206,,0,59,59,59,1,cvmt/test_items/t60.jpeg,o,,,,,,,,,,,,,,,,,,,,,,,,,,,,
,,117220,080,1,2024-03-06_22h16.09.280,Memory and Syntax,2023.2.3,Win32,144.9275362,,,,,202.7206,204.7358,o,1,1.001,,204.7359,204.736,,0,204.736,204.7361,,204.7361,204.7361,,0,60,60,60,1,cvmt/test_items/t61.jpeg,o,,,,,,,,,,,,,,,,,,,,,,,,,,,,
,,117220,080,1,2024-03-06_22h16.09.280,Memory and Syntax,2023.2.3,Win32,144.9275362,,,,,204.7361,206.7371,o,1,0.748,,206.7371,206.7372,,0,206.7373,206.7374,,206.7374,206.7374,,0,61,61,61,1,cvmt/test_items/t62.jpeg,o,,,,,,,,,,,,,,,,,,,,,,,,,,,,
,,117220,080,1,2024-03-06_22h16.09.280,Memory and Syntax,2023.2.3,Win32,144.9275362,,,,,206.7375,208.7232,o,1,1.2779,,208.7234,208.7235,,0,208.7236,208.7237,,208.7237,208.7238,,0,62,62,62,1,cvmt/test_items/t63.jpeg,o,,,,,,,,,,,,,,,,,,,,,,,,,,,,
,,117220,080,1,2024-03-06_22h16.09.280,Memory and Syntax,2023.2.3,Win32,144.9275362,,,,,208.7238,210.7358,o,1,0.9686,,210.7358,210.7359,,0,210.7359,210.736,,210.736,210.7361,,0,63,63,63,1,cvmt/test_items/t64.jpeg,o,,,,,,,,,,,,,,,,,,,,,,,,,,,,
,,117220,080,1,2024-03-06_22h16.09.280,Memory and Syntax,2023.2.3,Win32,144.9275362,,,,,210.7362,212.7219,o,1,0.9118,,212.722,212.7221,,0,212.7221,212.7221,,212.7221,212.7221,,0,64,64,64,1,cvmt/test_items/t65.jpeg,o,,,,,,,,,,,,,,,,,,,,,,,,,,,,
,,117220,080,1,2024-03-06_22h16.09.280,Memory and Syntax,2023.2.3,Win32,144.9275362,,,,,212.7222,214.736,o,1,0.9807,,214.736,214.7361,,0,214.7361,214.7362,,214.7362,214.7362,,0,65,65,65,1,cvmt/test_items/t66.jpeg,o,,,,,,,,,,,,,,,,,,,,,,,,,,,,
,,117220,080,1,2024-03-06_22h16.09.280,Memory and Syntax,2023.2.3,Win32,144.9275362,,,,,214.7363,216.7195,o,0,0.7725,,216.7195,216.7195,,0,216.7196,216.7197,,216.7197,216.7197,,0,66,66,66,1,cvmt/test_items/t67.jpeg,n,,,,,,,,,,,,,,,,,,,,,,,,,,,,
,,117220,080,1,2024-03-06_22h16.09.280,Memory and Syntax,2023.2.3,Win32,144.9275362,,,,,216.7198,218.7194,n,0,1.017,,218.7194,218.7195,,0,218.7195,218.7196,,218.7196,218.7197,,0,67,67,67,1,cvmt/test_items/t68.jpeg,o,,,,,,,,,,,,,,,,,,,,,,,,,,,,
,,117220,080,1,2024-03-06_22h16.09.280,Memory and Syntax,2023.2.3,Win32,144.9275362,,,,,218.7197,220.7027,o,1,1.2643,,220.7027,220.7028,,0,220.7029,220.703,,220.703,220.703,,0,68,68,68,1,cvmt/test_items/t69.jpeg,o,,,,,,,,,,,,,,,,,,,,,,,,,,,,
,,117220,080,1,2024-03-06_22h16.09.280,Memory and Syntax,2023.2.3,Win32,144.9275362,,,,,220.7031,222.7192,o,1,0.8306,,222.7192,222.7192,,0,222.7192,222.7193,,222.7193,222.7193,,0,69,69,69,1,cvmt/test_items/t70.jpeg,o,,,,,,,,,,,,,,,,,,,,,,,,,,,,
,,117220,080,1,2024-03-06_22h16.09.280,Memory and Syntax,2023.2.3,Win32,144.9275362,,,,,222.7194,224.7217,o,0,0.8292,,224.7217,224.7217,,0,224.7217,224.722,,224.722,224.722,,0,70,70,70,1,cvmt/test_items/t71.jpeg,n,,,,,,,,,,,,,,,,,,,,,,,,,,,,
,,117220,080,1,2024-03-06_22h16.09.280,Memory and Syntax,2023.2.3,Win32,144.9275362,,,,,224.7221,226.7204,o,1,0.7463,,226.7204,226.7204,,0,226.7204,226.7206,,226.7206,226.7206,,0,71,71,71,1,cvmt/test_items/t72.jpeg,o,,,,,,,,,,,,,,,,,,,,,,,,,,,,
,,117220,080,1,2024-03-06_22h16.09.280,Memory and Syntax,2023.2.3,Win32,144.9275362,,,,,226.7206,228.7056,o,1,0.9309,,228.7056,228.7056,,0,228.7056,228.7058,,228.7058,228.7058,,0,72,72,72,1,cvmt/test_items/t73.jpeg,o,,,,,,,,,,,,,,,,,,,,,,,,,,,,
,,117220,080,1,2024-03-06_22h16.09.280,Memory and Syntax,2023.2.3,Win32,144.9275362,,,,,228.706,230.7037,o,1,0.6238,,230.7037,230.7037,,0,230.7037,230.7038,,230.7038,230.7038,,0,73,73,73,1,cvmt/test_items/t74.jpeg,o,,,,,,,,,,,,,,,,,,,,,,,,,,,,
,,117220,080,1,2024-03-06_22h16.09.280,Memory and Syntax,2023.2.3,Win32,144.9275362,,,,,230.7039,232.7036,o,1,1.8516,,232.7036,232.7037,,0,232.7037,232.7038,,232.7038,232.7038,,0,74,74,74,1,cvmt/test_items/t75.jpeg,o,,,,,,,,,,,,,,,,,,,,,,,,,,,,
,,117220,080,1,2024-03-06_22h16.09.280,Memory and Syntax,2023.2.3,Win32,144.9275362,,,,,232.7039,234.7025,o,1,0.9976,,234.7025,234.7027,,0,234.7028,234.7029,,234.7029,234.7029,,0,75,75,75,1,cvmt/test_items/t76.jpeg,o,,,,,,,,,,,,,,,,,,,,,,,,,,,,
,,117220,080,1,2024-03-06_22h16.09.280,Memory and Syntax,2023.2.3,Win32,144.9275362,,,,,234.7029,236.7075,o,1,0.9466,,236.7075,236.7076,,0,236.7076,236.7077,,236.7077,236.7077,,0,76,76,76,1,cvmt/test_items/t77.jpeg,o,,,,,,,,,,,,,,,,,,,,,,,,,,,,
,,117220,080,1,2024-03-06_22h16.09.280,Memory and Syntax,2023.2.3,Win32,144.9275362,,,,,236.7077,238.706,o,1,0.9136,,238.706,238.7061,,0,238.7061,238.7063,,238.7063,238.7063,,0,77,77,77,1,cvmt/test_items/t78.jpeg,o,,,,,,,,,,,,,,,,,,,,,,,,,,,,
,,117220,080,1,2024-03-06_22h16.09.280,Memory and Syntax,2023.2.3,Win32,144.9275362,,,,,238.7063,240.7028,n,0,1.0242,,240.7028,240.7028,,0,240.7029,240.703,,240.703,240.7031,,0,78,78,78,1,cvmt/test_items/t79.jpeg,o,,,,,,,,,,,,,,,,,,,,,,,,,,,,
,,117220,080,1,2024-03-06_22h16.09.280,Memory and Syntax,2023.2.3,Win32,144.9275362,,,,,240.7031,242.7039,n,1,1.282,,242.7039,242.7039,,0,242.7039,242.7041,,242.7041,242.7041,,0,79,79,79,1,cvmt/test_items/t80.jpeg,n,,,,,,,,,,,,,,,,,,,,,,,,,,,,
,,117220,080,1,2024-03-06_22h16.09.280,Memory and Syntax,2023.2.3,Win32,144.9275362,,,,,242.7041,244.7027,n,0,1.2597,,244.7027,244.7028,,0,244.7029,244.703,,244.7031,244.7031,,0,80,80,80,1,cvmt/test_items/t81.jpeg,o,,,,,,,,,,,,,,,,,,,,,,,,,,,,
,,117220,080,1,2024-03-06_22h16.09.280,Memory and Syntax,2023.2.3,Win32,144.9275362,,,,,244.7031,246.7018,o,1,0.6349,,246.7018,246.7019,,0,246.7019,246.7022,,246.7022,246.7022,,0,81,81,81,1,cvmt/test_items/t82.jpeg,o,,,,,,,,,,,,,,,,,,,,,,,,,,,,
,,117220,080,1,2024-03-06_22h16.09.280,Memory and Syntax,2023.2.3,Win32,144.9275362,,,,,246.7023,248.6855,n,0,1.2667,,248.6855,248.6856,,0,248.6856,248.6857,,248.6857,248.6858,,0,82,82,82,1,cvmt/test_items/t83.jpeg,o,,,,,,,,,,,,,,,,,,,,,,,,,,,,
,,117220,080,1,2024-03-06_22h16.09.280,Memory and Syntax,2023.2.3,Win32,144.9275362,,,,,248.6859,250.672,o,1,0.9007,,250.672,250.6722,,0,250.6722,250.6723,,250.6724,250.6724,,0,83,83,83,1,cvmt/test_items/t84.jpeg,o,,,,,,,,,,,,,,,,,,,,,,,,,,,,
,,117220,080,1,2024-03-06_22h16.09.280,Memory and Syntax,2023.2.3,Win32,144.9275362,,,,,250.6725,252.6695,n,0,1.3024,,252.6695,252.6695,,0,252.6695,252.6697,,252.6697,252.6697,,0,84,84,84,1,cvmt/test_items/t85.jpeg,o,,,,,,,,,,,,,,,,,,,,,,,,,,,,
,,117220,080,1,2024-03-06_22h16.09.280,Memory and Syntax,2023.2.3,Win32,144.9275362,,,,,252.6697,254.6704,o,1,0.5968,,254.6704,254.6704,,0,254.6704,254.6706,,254.6707,254.6707,,0,85,85,85,1,cvmt/test_items/t86.jpeg,o,,,,,,,,,,,,,,,,,,,,,,,,,,,,
,,117220,080,1,2024-03-06_22h16.09.280,Memory and Syntax,2023.2.3,Win32,144.9275362,,,,,254.6708,256.6529,n,0,1.3144,,256.6529,256.6529,,0,256.6529,256.6531,,256.6531,256.6531,,0,86,86,86,1,cvmt/test_items/t87.jpeg,o,,,,,,,,,,,,,,,,,,,,,,,,,,,,
,,117220,080,1,2024-03-06_22h16.09.280,Memory and Syntax,2023.2.3,Win32,144.9275362,,,,,256.6532,258.653,o,0,1.8691,,258.653,258.6531,,0,258.6531,258.6532,,258.6532,258.6533,,0,87,87,87,1,cvmt/test_items/t88.jpeg,n,,,,,,,,,,,,,,,,,,,,,,,,,,,,
,,117220,080,1,2024-03-06_22h16.09.280,Memory and Syntax,2023.2.3,Win32,144.9275362,,,,,258.6533,260.6704,o,0,0.9614,,260.6704,260.6706,,0,260.6706,260.6708,,260.6708,260.6708,,0,88,88,88,1,cvmt/test_items/t89.jpeg,n,,,,,,,,,,,,,,,,,,,,,,,,,,,,
,,117220,080,1,2024-03-06_22h16.09.280,Memory and Syntax,2023.2.3,Win32,144.9275362,,,,,260.6709,262.657,o,1,1.1182,,262.657,262.6571,,0,262.6572,262.6572,,262.6573,262.6573,,0,89,89,89,1,cvmt/test_items/t90.jpeg,o,,,,,,,,,,,,,,,,,,,,,,,,,,,,
,,117220,080,1,2024-03-06_22h16.09.280,Memory and Syntax,2023.2.3,Win32,144.9275362,,,,,262.6573,264.6529,n,0,0.9329,,264.6529,264.653,,0,264.653,264.6533,,264.6533,264.6533,,0,90,90,90,1,cvmt/test_items/t91.jpeg,o,,,,,,,,,,,,,,,,,,,,,,,,,,,,
,,117220,080,1,2024-03-06_22h16.09.280,Memory and Syntax,2023.2.3,Win32,144.9275362,,,,,264.6534,266.6546,o,1,0.7759,,266.6546,266.6546,,0,266.6547,266.655,,266.655,266.655,,0,91,91,91,1,cvmt/test_items/t92.jpeg,o,,,,,,,,,,,,,,,,,,,,,,,,,,,,
,,117220,080,1,2024-03-06_22h16.09.280,Memory and Syntax,2023.2.3,Win32,144.9275362,,,,,266.6551,268.6372,o,1,0.925,,268.6373,268.6374,,0,268.6374,268.6374,,268.6374,268.6375,,0,92,92,92,1,cvmt/test_items/t93.jpeg,o,,,,,,,,,,,,,,,,,,,,,,,,,,,,
,,117220,080,1,2024-03-06_22h16.09.280,Memory and Syntax,2023.2.3,Win32,144.9275362,,,,,268.6375,270.637,n,0,0.735,,270.637,270.6373,,0,270.6373,270.6373,,270.6373,270.6373,,0,93,93,93,1,cvmt/test_items/t94.jpeg,o,,,,,,,,,,,,,,,,,,,,,,,,,,,,
,,117220,080,1,2024-03-06_22h16.09.280,Memory and Syntax,2023.2.3,Win32,144.9275362,,,,,270.6374,272.6373,n,0,0.8651,,272.6373,272.6374,,0,272.6374,272.6376,,272.6376,272.6376,,0,94,94,94,1,cvmt/test_items/t95.jpeg,o,,,,,,,,,,,,,,,,,,,,,,,,,,,,
,,117220,080,1,2024-03-06_22h16.09.280,Memory and Syntax,2023.2.3,Win32,144.9275362,,,,,272.6377,274.6397,n,0,1.1632,,274.6397,274.6398,,0,274.6398,274.6399,,274.6399,274.6399,,0,95,95,95,1,cvmt/test_items/t96.jpeg,o,,,,,,,,,,,,,,,,,,,,,,,,,,,,
,,117220,080,1,2024-03-06_22h16.09.280,Memory and Syntax,2023.2.3,Win32,144.9275362,,,,,274.6399,276.636,o,1,1.393,,276.6361,276.6362,,0,276.6362,276.6362,,276.6362,276.6362,,0,96,96,96,1,cvmt/test_items/t97.jpeg,o,,,,,,,,,,,,,,,,,,,,,,,,,,,,
,,117220,080,1,2024-03-06_22h16.09.280,Memory and Syntax,2023.2.3,Win32,144.9275362,,,,,276.6363,278.6225,n,1,0.8962,,278.6225,278.6226,,0,278.6226,278.6227,,278.6227,278.6227,,0,97,97,97,1,cvmt/test_items/t98.jpeg,n,,,,,,,,,,,,,,,,,,,,,,,,,,,,
,,117220,080,1,2024-03-06_22h16.09.280,Memory and Syntax,2023.2.3,Win32,144.9275362,,,,,278.6229,280.6196,n,0,0.7319,,280.6196,280.6196,,0,280.6196,280.6199,,280.6199,280.6199,,0,98,98,98,1,cvmt/test_items/t99.jpeg,o,,,,,,,,,,,,,,,,,,,,,,,,,,,,
,,117220,080,1,2024-03-06_22h16.09.280,Memory and Syntax,2023.2.3,Win32,144.9275362,,,,,280.6199,282.6194,o,1,0.7244,,282.6195,282.6195,,0,282.6195,282.6196,,282.6197,282.6197,,0,99,99,99,1,cvmt/test_items/t100.jpeg,o,,,,,,,,,,,,,,,,,,,,,,,,,,,,
,,117220,080,1,2024-03-06_22h16.09.280,Memory and Syntax,2023.2.3,Win32,144.9275362,,,,,282.6198,284.6363,o,1,0.7628,,284.6363,284.6365,,0,284.6365,284.6366,,284.6366,284.6366,,0,100,100,100,1,cvmt/test_items/t101.jpeg,o,,,,,,,,,,,,,,,,,,,,,,,,,,,,
,,117220,080,1,2024-03-06_22h16.09.280,Memory and Syntax,2023.2.3,Win32,144.9275362,,,,,284.6367,286.6224,o,1,0.8171,,286.6224,286.6225,,0,286.6226,286.6228,,286.6228,286.6228,,0,101,101,101,1,cvmt/test_items/t102.jpeg,o,,,,,,,,,,,,,,,,,,,,,,,,,,,,
,,117220,080,1,2024-03-06_22h16.09.280,Memory and Syntax,2023.2.3,Win32,144.9275362,,,,,286.6229,288.6194,n,0,1.7491,,288.6195,288.6196,,0,288.6196,288.6197,,288.6197,288.6197,,0,102,102,102,1,cvmt/test_items/t103.jpeg,o,,,,,,,,,,,,,,,,,,,,,,,,,,,,
,,117220,080,1,2024-03-06_22h16.09.280,Memory and Syntax,2023.2.3,Win32,144.9275362,,,,,288.6198,290.6027,o,1,0.6783,,290.6028,290.6028,,0,290.6028,290.6029,,290.6029,290.6029,,0,103,103,103,1,cvmt/test_items/t104.jpeg,o,,,,,,,,,,,,,,,,,,,,,,,,,,,,
,,117220,080,1,2024-03-06_22h16.09.280,Memory and Syntax,2023.2.3,Win32,144.9275362,,,,,290.603,292.6132,n,1,0.8981,,292.6132,292.6134,,0,292.6134,292.6135,,292.6135,292.6135,,0,104,104,104,1,cvmt/test_items/t105.jpeg,n,,,,,,,,,,,,,,,,,,,,,,,,,,,,
,,117220,080,1,2024-03-06_22h16.09.280,Memory and Syntax,2023.2.3,Win32,144.9275362,,,,,292.6136,294.5904,o,1,1.0378,,294.5904,294.5905,,0,294.5905,294.5906,,294.5906,294.5907,,0,105,105,105,1,cvmt/test_items/t106.jpeg,o,,,,,,,,,,,,,,,,,,,,,,,,,,,,
,,117220,080,1,2024-03-06_22h16.09.280,Memory and Syntax,2023.2.3,Win32,144.9275362,,,,,294.5907,296.5879,o,1,0.7416,,296.5879,296.5879,,0,296.5879,296.5881,,296.5881,296.5881,,0,106,106,106,1,cvmt/test_items/t107.jpeg,o,,,,,,,,,,,,,,,,,,,,,,,,,,,,
,,117220,080,1,2024-03-06_22h16.09.280,Memory and Syntax,2023.2.3,Win32,144.9275362,,,,,296.5882,298.5768,n,0,1.2253,,298.5769,298.5769,,0,298.5769,298.5769,,298.5769,298.577,,0,107,107,107,1,cvmt/test_items/t108.jpeg,o,,,,,,,,,,,,,,,,,,,,,,,,,,,,
,,117220,080,1,2024-03-06_22h16.09.280,Memory and Syntax,2023.2.3,Win32,144.9275362,,,,,298.5771,300.5601,,0,,,300.5601,307.3198,n,0,307.3198,307.3243,,307.3243,307.3243,,0,108,108,108,1,cvmt/test_items/t109.jpeg,o,,,,,6.7261,,,,,,,,,,,,,,,,,,,,,,,
,,117220,080,1,2024-03-06_22h16.09.280,Memory and Syntax,2023.2.3,Win32,144.9275362,,,,,307.3244,309.319,n,0,1.4305,,309.3191,309.3198,,0,309.3199,309.3201,,309.3201,309.3201,,0,109,109,109,1,cvmt/test_items/t110.jpeg,o,,,,,,,,,,,,,,,,,,,,,,,,,,,,
,,117220,080,1,2024-03-06_22h16.09.280,Memory and Syntax,2023.2.3,Win32,144.9275362,,,,,309.3201,311.3357,o,1,0.7664,,311.3357,311.3358,,0,311.3358,311.3358,,311.3358,311.3359,,0,110,110,110,1,cvmt/test_items/t111.jpeg,o,,,,,,,,,,,,,,,,,,,,,,,,,,,,
,,117220,080,1,2024-03-06_22h16.09.280,Memory and Syntax,2023.2.3,Win32,144.9275362,,,,,311.3359,313.3379,o,1,0.6163,,313.338,313.3381,,0,313.3381,313.3383,,313.3383,313.3383,,0,111,111,111,1,cvmt/test_items/t112.jpeg,o,,,,,,,,,,,,,,,,,,,,,,,,,,,,
,,117220,080,1,2024-03-06_22h16.09.280,Memory and Syntax,2023.2.3,Win32,144.9275362,,,,,313.3383,315.3354,o,0,0.5678,,315.3354,315.3355,,0,315.3355,315.3356,,315.3356,315.3356,,0,112,112,112,1,cvmt/test_items/t113.jpeg,n,,,,,,,,,,,,,,,,,,,,,,,,,,,,
,,117220,080,1,2024-03-06_22h16.09.280,Memory and Syntax,2023.2.3,Win32,144.9275362,,,,,315.3357,317.3355,n,0,1.2136,,317.3355,317.3355,,0,317.3356,317.3357,,317.3357,317.3357,,0,113,113,113,1,cvmt/test_items/t114.jpeg,o,,,,,,,,,,,,,,,,,,,,,,,,,,,,
,,117220,080,1,2024-03-06_22h16.09.280,Memory and Syntax,2023.2.3,Win32,144.9275362,,,,,317.3358,319.336,o,1,0.8087,,319.336,319.3361,,0,319.3361,319.3364,,319.3364,319.3364,,0,114,114,114,1,cvmt/test_items/t115.jpeg,o,,,,,,,,,,,,,,,,,,,,,,,,,,,,
,,117220,080,1,2024-03-06_22h16.09.280,Memory and Syntax,2023.2.3,Win32,144.9275362,,,,,319.3364,321.324,o,1,1.0715,,321.3241,321.3241,,0,321.3241,321.3243,,321.3243,321.3243,,0,115,115,115,1,cvmt/test_items/t116.jpeg,o,,,,,,,,,,,,,,,,,,,,,,,,,,,,
,,117220,080,1,2024-03-06_22h16.09.280,Memory and Syntax,2023.2.3,Win32,144.9275362,,,,,321.3244,323.3359,o,1,0.8457,,323.3359,323.336,,0,323.336,323.3362,,323.3362,323.3363,,0,116,116,116,1,cvmt/test_items/t117.jpeg,o,,,,,,,,,,,,,,,,,,,,,,,,,,,,
,,117220,080,1,2024-03-06_22h16.09.280,Memory and Syntax,2023.2.3,Win32,144.9275362,,,,,323.3363,325.3377,o,1,0.9438,,325.3377,325.3378,,0,325.3378,325.338,,325.338,325.338,,0,117,117,117,1,cvmt/test_items/t118.jpeg,o,,,,,,,,,,,,,,,,,,,,,,,,,,,,
,,117220,080,1,2024-03-06_22h16.09.280,Memory and Syntax,2023.2.3,Win32,144.9275362,,,,,325.3381,327.323,o,1,0.7455,,327.323,327.3231,,0,327.3231,327.3232,,327.3232,327.3232,,0,118,118,118,1,cvmt/test_items/t119.jpeg,o,,,,,,,,,,,,,,,,,,,,,,,,,,,,
,,117220,080,1,2024-03-06_22h16.09.280,Memory and Syntax,2023.2.3,Win32,144.9275362,,,,,327.3233,329.3194,o,1,0.7217,,329.3194,329.3195,,0,329.3195,329.3197,,329.3197,329.3197,,0,119,119,119,1,cvmt/test_items/t120.jpeg,o,,,,,,,,,,,,,,,,,,,,,,,,,,,,
,,117220,080,1,2024-03-06_22h16.09.280,Memory and Syntax,2023.2.3,Win32,144.9275362,,,,,329.3198,331.3199,o,1,0.7486,,331.3199,331.32,,0,331.32,331.3201,,331.3201,331.3201,,0,120,120,120,1,cvmt/test_items/t121.jpeg,o,,,,,,,,,,,,,,,,,,,,,,,,,,,,
,,117220,080,1,2024-03-06_22h16.09.280,Memory and Syntax,2023.2.3,Win32,144.9275362,,,,,331.3202,333.3198,o,1,0.7133,,333.3198,333.3198,,0,333.3198,333.32,,333.32,333.32,,0,121,121,121,1,cvmt/test_items/t122.jpeg,o,,,,,,,,,,,,,,,,,,,,,,,,,,,,
,,117220,080,1,2024-03-06_22h16.09.280,Memory and Syntax,2023.2.3,Win32,144.9275362,,,,,333.3201,335.3204,o,0,0.7782,,335.3204,335.3204,,0,335.3204,335.3205,,335.3205,335.3206,,0,122,122,122,1,cvmt/test_items/t123.jpeg,n,,,,,,,,,,,,,,,,,,,,,,,,,,,,
,,117220,080,1,2024-03-06_22h16.09.280,Memory and Syntax,2023.2.3,Win32,144.9275362,,,,,335.3207,337.3103,o,1,1.3302,,337.3103,337.3104,,0,337.3104,337.3106,,337.3106,337.3106,,0,123,123,123,1,cvmt/test_items/t124.jpeg,o,,,,,,,,,,,,,,,,,,,,,,,,,,,,
,,117220,080,1,2024-03-06_22h16.09.280,Memory and Syntax,2023.2.3,Win32,144.9275362,,,,,337.3107,339.3062,o,1,0.7373,,339.3063,339.3063,,0,339.3063,339.3065,,339.3065,339.3065,,0,124,124,124,1,cvmt/test_items/t125.jpeg,o,,,,,,,,,,,,,,,,,,,,,,,,,,,,
,,117220,080,1,2024-03-06_22h16.09.280,Memory and Syntax,2023.2.3,Win32,144.9275362,,,,,339.3066,341.3061,o,1,0.9792,,341.3061,341.3062,,0,341.3062,341.3064,,341.3064,341.3064,,0,125,125,125,1,cvmt/test_items/t126.jpeg,o,,,,,,,,,,,,,,,,,,,,,,,,,,,,
,,117220,080,1,2024-03-06_22h16.09.280,Memory and Syntax,2023.2.3,Win32,144.9275362,,,,,341.3065,343.3025,o,1,1.088,,343.3025,343.3026,,0,343.3026,343.3027,,343.3028,343.3028,,0,126,126,126,1,cvmt/test_items/t127.jpeg,o,,,,,,,,,,,,,,,,,,,,,,,,,,,,
,,117220,080,1,2024-03-06_22h16.09.280,Memory and Syntax,2023.2.3,Win32,144.9275362,,,,,343.303,345.3029,n,0,1.2096,,345.303,345.3031,,0,345.3031,345.3033,,345.3033,345.3033,,0,127,127,127,1,cvmt/test_items/t128.jpeg,o,,,,,,,,,,,,,,,,,,,,,,,,,,,,
,,117220,080,1,2024-03-06_22h16.09.280,Memory and Syntax,2023.2.3,Win32,144.9275362,,,,,345.3034,347.3073,n,0,0.7782,,347.3073,347.3073,,0,347.3073,347.3076,,347.3076,347.3077,,0,128,128,128,1,cvmt/test_items/t129.jpeg,o,,,,,,,,,,,,,,,,,,,,,,,,,,,,
,,117220,080,1,2024-03-06_22h16.09.280,Memory and Syntax,2023.2.3,Win32,144.9275362,,,,,347.3077,349.3041,o,1,0.7792,,349.3041,349.3042,,0,349.3042,349.3044,,349.3044,349.3044,,0,129,129,129,1,cvmt/test_items/t130.jpeg,o,,,,,,,,,,,,,,,,,,,,,,,,,,,,
,,117220,080,1,2024-03-06_22h16.09.280,Memory and Syntax,2023.2.3,Win32,144.9275362,,,,,349.3044,351.3043,n,1,1.2682,,351.3043,351.3044,,0,351.3044,351.3045,,351.3045,351.3045,,0,130,130,130,1,cvmt/test_items/t131.jpeg,n,,,,,,,,,,,,,,,,,,,,,,,,,,,,
,,117220,080,1,2024-03-06_22h16.09.280,Memory and Syntax,2023.2.3,Win32,144.9275362,,,,,351.3045,353.2911,o,1,0.8022,,353.2911,353.2912,,0,353.2912,353.2914,,353.2914,353.2914,,0,131,131,131,1,cvmt/test_items/t132.jpeg,o,,,,,,,,,,,,,,,,,,,,,,,,,,,,
,,117220,080,1,2024-03-06_22h16.09.280,Memory and Syntax,2023.2.3,Win32,144.9275362,,,,,353.2915,355.2882,o,1,0.7942,,355.2882,355.2883,,0,355.2883,355.2884,,355.2884,355.2884,,0,132,132,132,1,cvmt/test_items/t133.jpeg,o,,,,,,,,,,,,,,,,,,,,,,,,,,,,
,,117220,080,1,2024-03-06_22h16.09.280,Memory and Syntax,2023.2.3,Win32,144.9275362,,,,,355.2885,357.2873,o,1,1.3128,,357.2874,357.2874,,0,357.2874,357.2875,,357.2875,357.2875,,0,133,133,133,1,cvmt/test_items/t134.jpeg,o,,,,,,,,,,,,,,,,,,,,,,,,,,,,
,,117220,080,1,2024-03-06_22h16.09.280,Memory and Syntax,2023.2.3,Win32,144.9275362,,,,,357.2876,359.2857,n,0,1.1135,,359.2857,359.2858,,0,359.2858,359.2859,,359.2859,359.2859,,0,134,134,134,1,cvmt/test_items/t135.jpeg,o,,,,,,,,,,,,,,,,,,,,,,,,,,,,
,,117220,080,1,2024-03-06_22h16.09.280,Memory and Syntax,2023.2.3,Win32,144.9275362,,,,,,,,,,,,,,,,,,,,,,,,,,,,,,,,,,359.2862,359.2863,0.0001,359.2891,366.6871,space,6.7275,,366.6904,376.1046,2.5,9.4131,0,0,0,0,1,1,1,WOV,8B,Practiced the virtuoso many pieces.
,,117220,080,1,2024-03-06_22h16.09.280,Memory and Syntax,2023.2.3,Win32,144.9275362,,,,,,,,,,,,,,,,,,,,,,,,,,,,,,,,,,,,,,,,,,376.1048,379.6712,6.1,3.5653,0,1,1,1,1,1,2,AS,6A,The rickety old boat sank.
,,117220,080,1,2024-03-06_22h16.09.280,Memory and Syntax,2023.2.3,Win32,144.9275362,,,,,,,,,,,,,,,,,,,,,,,,,,,,,,,,,,,,,,,,,,379.6713,382.3547,6.9,2.6825,0,2,2,2,1,1,3,WO,6A,The waiter set the table promptly.
,,117220,080,1,2024-03-06_22h16.09.280,Memory and Syntax,2023.2.3,Win32,144.9275362,,,,,,,,,,,,,,,,,,,,,,,,,,,,,,,,,,,,,,,,,,382.3548,388.8042,2.4,6.4484,0,3,3,3,1,1,4,control,12B,They anticipate that everybody you do will contact Megan.
,,117220,080,1,2024-03-06_22h16.09.280,Memory and Syntax,2023.2.3,Win32,144.9275362,,,,,,,,,,,,,,,,,,,,,,,,,,,,,,,,,,,,,,,,,,388.8043,392.0209,5.2,3.2159,0,4,4,4,1,1,5,ASV,11B,The cat moved himself away.
,,117220,080,1,2024-03-06_22h16.09.280,Memory and Syntax,2023.2.3,Win32,144.9275362,,,,,,,,,,,,,,,,,,,,,,,,,,,,,,,,,,,,,,,,,,392.021,394.8555,3,2.8338,0,5,5,5,1,1,6,ASV,7B,She laughed herself at the dog.
,,117220,080,1,2024-03-06_22h16.09.280,Memory and Syntax,2023.2.3,Win32,144.9275362,,,,,,,,,,,,,,,,,,,,,,,,,,,,,,,,,,,,,,,,,,394.8555,397.5701,7,2.7138,0,6,6,6,1,1,7,AS,5A,The professor cried about the article.
,,117220,080,1,2024-03-06_22h16.09.280,Memory and Syntax,2023.2.3,Win32,144.9275362,,,,,,,,,,,,,,,,,,,,,,,,,,,,,,,,,,,,,,,,,,397.5701,400.1076,7,2.537,0,7,7,7,1,1,8,WO,5A,My sibling expected a good grade.
,,117220,080,1,2024-03-06_22h16.09.280,Memory and Syntax,2023.2.3,Win32,144.9275362,,,,,,,,,,,,,,,,,,,,,,,,,,,,,,,,,,,,,,,,,,400.1077,403.207,2.9,3.0984,0,8,8,8,1,1,9,filler,1A,There has been a man considered violent.
,,117220,080,1,2024-03-06_22h16.09.280,Memory and Syntax,2023.2.3,Win32,144.9275362,,,,,,,,,,,,,,,,,,,,,,,,,,,,,,,,,,,,,,,,,,403.2072,405.7067,6.8,2.4989,0,9,9,9,1,1,10,AS,2A,Taylor subscribed to the channel.
,,117220,080,1,2024-03-06_22h16.09.280,Memory and Syntax,2023.2.3,Win32,144.9275362,,,,,,,,,,,,,,,,,,,,,,,,,,,,,,,,,,,,,,,,,,405.7068,410.5872,2.8,4.8798,0,10,10,10,1,1,11,control,10B,There might fossils seem to be several miles underground.
,,117220,080,1,2024-03-06_22h16.09.280,Memory and Syntax,2023.2.3,Win32,144.9275362,,,,,,,,,,,,,,,,,,,,,,,,,,,,,,,,,,,,,,,,,,410.5873,413.7936,5.2,3.2055,0,11,11,11,1,1,12,ASV,8B,Esperanza sighed herself at the desk.
,,117220,080,1,2024-03-06_22h16.09.280,Memory and Syntax,2023.2.3,Win32,144.9275362,,,,,,,,,,,,,,,,,,,,,,,,,,,,,,,,,,,,,,,,,,413.7937,416.2911,3.1,2.4967,0,12,12,12,1,1,13,WOV,9B,Read we five pages each night.
,,117220,080,1,2024-03-06_22h16.09.280,Memory and Syntax,2023.2.3,Win32,144.9275362,,,,,,,,,,,,,,,,,,,,,,,,,,,,,,,,,,,,,,,,,,416.2912,418.905,2.8,2.6028,0,13,13,13,1,1,14,WOV,7B,Frightened the eerie sound Seth.
,,117220,080,1,2024-03-06_22h16.09.280,Memory and Syntax,2023.2.3,Win32,144.9275362,,,,,,,,,,,,,,,,,,,,,,,,,,,,,,,,,,,,,,,,,,418.9051,421.7058,5.6,2.8,0,14,14,14,1,1,15,filler,2A,"Arty is sick, and Mark is too."
,,117220,080,1,2024-03-06_22h16.09.280,Memory and Syntax,2023.2.3,Win32,144.9275362,,,,,,,,,,,,,,,,,,,,,,,,,,,,,,,,,,,,,,,,,,421.706,424.7054,6.7,2.9988,0,15,15,15,1,1,16,ASV,9B,The prime minister confessed herself to bribery.
,,117220,080,1,2024-03-06_22h16.09.280,Memory and Syntax,2023.2.3,Win32,144.9275362,,,,,,,,,,,,,,,,,,,,,,,,,,,,,,,,,,,,,,,,,,424.7054,427.5034,6,2.7972,0,16,16,16,1,1,17,control,7B,Olivia told Gregory when to exonerate herself.
,,117220,080,1,2024-03-06_22h16.09.280,Memory and Syntax,2023.2.3,Win32,144.9275362,,,,,,,,,,,,,,,,,,,,,,,,,,,,,,,,,,,,,,,,,,427.5036,430.5874,7,3.0832,0,17,17,17,1,1,18,control,11B,There are likely students to be in the library.
,,117220,080,1,2024-03-06_22h16.09.280,Memory and Syntax,2023.2.3,Win32,144.9275362,,,,,,,,,,,,,,,,,,,,,,,,,,,,,,,,,,,,,,,,,,430.5875,433.6382,7,3.05,0,18,18,18,1,1,19,filler,5A,I told Mandy who would win the election.
,,117220,080,1,2024-03-06_22h16.09.280,Memory and Syntax,2023.2.3,Win32,144.9275362,,,,,,,,,,,,,,,,,,,,,,,,,,,,,,,,,,,,,,,,,,433.6383,437.7738,7,4.1347,0,19,19,19,1,1,20,control,9B,We consider there three problems.
,,117220,080,1,2024-03-06_22h16.09.280,Memory and Syntax,2023.2.3,Win32,144.9275362,,,,,,,,,,,,,,,,,,,,,,,,,,,,,,,,,,,,,,,,,,437.7738,441.9201,3.6,4.1454,0,20,20,20,1,1,21,control,8B,She called Victor and yelled at.
,,117220,080,1,2024-03-06_22h16.09.280,Memory and Syntax,2023.2.3,Win32,144.9275362,,,,,,,,,,,,,,,,,,,,,,,,,,,,,,,,,,,,,,,,,,441.9202,444.3204,6.6,2.3995,0,21,21,21,1,1,22,WO,4A,The bully pushed every student.
,,117220,080,1,2024-03-06_22h16.09.280,Memory and Syntax,2023.2.3,Win32,144.9275362,,,,,,,,,,,,,,,,,,,,,,,,,,,,,,,,,,,,,,,,,,444.3205,446.8714,6.8,2.5504,0,22,22,22,1,1,23,WO,3A,Miguel baked delicious cupcakes.
,,117220,080,1,2024-03-06_22h16.09.280,Memory and Syntax,2023.2.3,Win32,144.9275362,,,,,,,,,,,,,,,,,,,,,,,,,,,,,,,,,,,,,,,,,,446.8716,449.5365,7,2.6644,0,23,23,23,1,1,24,WO,1A,Abby answered the question.
,,117220,080,1,2024-03-06_22h16.09.280,Memory and Syntax,2023.2.3,Win32,144.9275362,,,,,,,,,,,,,,,,,,,,,,,,,,,,,,,,,,,,,,,,,,449.5367,452.1201,6.9,2.5827,0,24,24,24,1,1,25,filler,3A,Brittany attempted to touch the porcupine.
,,117220,080,1,2024-03-06_22h16.09.280,Memory and Syntax,2023.2.3,Win32,144.9275362,,,,,,,,,,,,,,,,,,,,,,,,,,,,,,,,,,,,,,,,,,452.1202,454.6053,6.9,2.4844,0,25,25,25,1,1,26,AS,3A,Gracie stayed by the window.
,,117220,080,1,2024-03-06_22h16.09.280,Memory and Syntax,2023.2.3,Win32,144.9275362,,,,,,,,,,,,,,,,,,,,,,,,,,,,,,,,,,,,,,,,,,454.6054,457.5708,2.2,2.9647,0,26,26,26,1,1,27,WOV,11B,Wrote she her boyfriend a poem.
,,117220,080,1,2024-03-06_22h16.09.280,Memory and Syntax,2023.2.3,Win32,144.9275362,,,,,,,,,,,,,,,,,,,,,,,,,,,,,,,,,,,,,,,,,,457.5709,460.0364,1.9,2.4647,0,27,27,27,1,1,28,WOV,12B,Watched Lily a movie.
,,117220,080,1,2024-03-06_22h16.09.280,Memory and Syntax,2023.2.3,Win32,144.9275362,,,,,,,,,,,,,,,,,,,,,,,,,,,,,,,,,,,,,,,,,,460.0364,462.6205,6.3,2.5833,0,28,28,28,1,1,29,WO,2A,Jackie won the close race.
,,117220,080,1,2024-03-06_22h16.09.280,Memory and Syntax,2023.2.3,Win32,144.9275362,,,,,,,,,,,,,,,,,,,,,,,,,,,,,,,,,,,,,,,,,,462.6205,465.3035,7,2.6825,0,29,29,29,1,1,30,AS,4A,Tomas drank from the water pitcher.
,,117220,080,1,2024-03-06_22h16.09.280,Memory and Syntax,2023.2.3,Win32,144.9275362,,,,,,,,,,,,,,,,,,,,,,,,,,,,,,,,,,,,,,,,,,465.3036,467.9467,2.3,2.6424,0,30,30,30,1,1,31,WOV,10B,Kissed Kareem his boyfriend.
,,117220,080,1,2024-03-06_22h16.09.280,Memory and Syntax,2023.2.3,Win32,144.9275362,,,,,,,,,,,,,,,,,,,,,,,,,,,,,,,,,,,,,,,,,,467.9467,472.0034,4.1,4.0558,0,31,31,31,1,1,32,ASV,10B,The children quieted themselves.
,,117220,080,1,2024-03-06_22h16.09.280,Memory and Syntax,2023.2.3,Win32,144.9275362,,,,,,,,,,,,,,,,,,,,,,,,,,,,,,,,,,,,,,,,,,472.0034,474.5033,5.7,2.4993,0,32,32,32,1,1,33,AS,1A,They fidgeted in their chairs.
,,117220,080,1,2024-03-06_22h16.09.280,Memory and Syntax,2023.2.3,Win32,144.9275362,,,,,,,,,,,,,,,,,,,,,,,,,,,,,,,,,,,,,,,,,,474.5034,477.6211,6.9,3.117,0,33,33,33,1,1,34,filler,4A,It seems to him that Kim solved the problem.
,,117220,080,1,2024-03-06_22h16.09.280,Memory and Syntax,2023.2.3,Win32,144.9275362,,,,,,,,,,,,,,,,,,,,,,,,,,,,,,,,,,,,,,,,,,477.6211,480.1056,5.8,2.4838,0,34,34,34,1,1,35,ASV,12B,The swimmers shaved themselves.