load.started,load.stopped,Sona ID,Participant ID,Session,date,expName,psychopyVersion,OS,frameRate,cvmtInstr.started,cvmtInstr.stopped,cvmtTaskInstr.started,cvmtTaskInstr.stopped,presentDesign.started,presentDesign.stopped,cvmt_key_resp.keys,cvmt_key_resp.corr,cvmtNoResp.started,cvmtNoResp.stopped,cvmt_key_resp2.keys,cvmt_key_resp2.corr,cvmt_key_resp2.rt,cvmt_key_resp2.duration,cvmtSampleFB.started,cvmtSampleFB.stopped,key_resp_15.keys,key_resp_15.rt,key_resp_15.duration,cvmtSampleFBFinal.started,cvmtSampleFBFinal.stopped,cvmt_final_samp_fb_key_resp.keys,cvmtTrials.thisRepN,cvmtTrials.thisTrialN,cvmtTrials.thisN,cvmtTrials.thisIndex,cvmtTrials.ran,cvmt_design,old_or_new,cvmt_key_resp.rt,cvmt_key_resp.duration,cvmt_final_samp_fb_key_resp.rt,cvmt_final_samp_fb_key_resp.duration,cvmtDelay.started,cvmtDelay.stopped,cvmt timer,engAJT_instr.started,engAJT_instr.stopped,start_ajt.keys,start_ajt.rt,start_ajt.duration,engAJT.started,engAJT.stopped,acceptability.response,acceptability.rt,engAJT_trials.thisRepN,engAJT_trials.thisTrialN,engAJT_trials.thisN,engAJT_trials.thisIndex,engAJT_trials.ran,ajt_list,list_position,condition,item,testSent
0.0008,0.0057,117220,080,1,2024-03-06_22h25.11.254,Memory and Syntax,2023.2.3,Win32,144.9275362,,,,,,,,,,,,,,,,,,,,,,,,,,,,,,,,,,,,,,,,,,,,,,,,,,,,,,,
,,117220,080,1,2024-03-06_22h25.11.254,Memory and Syntax,2023.2.3,Win32,144.9275362,0.012,1.126,1.1286,2.1864,2.2077,4.1899,,0,4.1903,7.2537,o,0,3.049,,7.2541,10.9869,c,3.7133,,10.9873,10.9886,,0,0,0,0,1,cvmt/sample/s1.jpg,n,,,,,,,,,,,,,,,,,,,,,,,,,,
,,117220,080,1,2024-03-06_22h25.11.254,Memory and Syntax,2023.2.3,Win32,144.9275362,,,,,10.9897,12.9868,n,1,12.9872,12.9886,,0,,,12.9889,12.9902,,,,12.9907,12.9914,,0,1,1,1,1,cvmt/sample/s2.jpg,n,1.2694,,,,,,,,,,,,,,,,,,,,,,,,,
,,117220,080,1,2024-03-06_22h25.11.254,Memory and Syntax,2023.2.3,Win32,144.9275362,,,,,12.9927,14.9939,n,0,14.9943,14.995,,0,,,14.9954,19.2064,c,4.1862,,19.2067,19.2075,,0,2,2,2,1,cvmt/sample/s3.jpg,o,1.3322,,,,,,,,,,,,,,,,,,,,,,,,,
,,117220,080,1,2024-03-06_22h25.11.254,Memory and Syntax,2023.2.3,Win32,144.9275362,,,,,19.2122,21.2048,n,1,21.2052,21.2069,,0,,,21.2073,21.2088,,,,21.2092,21.2099,,0,3,3,3,1,cvmt/sample/s4.jpg,n,1.0164,,,,,,,,,,,,,,,,,,,,,,,,,
,,117220,080,1,2024-03-06_22h25.11.254,Memory and Syntax,2023.2.3,Win32,144.9275362,,,,,21.211,23.2203,n,1,23.2207,23.2216,,0,,,23.2221,23.223,,,,23.2234,23.2241,,0,4,4,4,1,cvmt/sample/s5.jpg,n,1.108,,,,,,,,,,,,,,,,,,,,,,,,,
,,117220,080,1,2024-03-06_22h25.11.254,Memory and Syntax,2023.2.3,Win32,144.9275362,,,,,23.2253,25.2063,n,1,25.2067,25.2076,,0,,,25.2079,25.2088,,,,25.2092,25.2099,,0,5,5,5,1,cvmt/sample/s6.jpg,n,0.7328,,,,,,,,,,,,,,,,,,,,,,,,,
,,117220,080,1,2024-03-06_22h25.11.254,Memory and Syntax,2023.2.3,Win32,144.9275362,,,,,25.2111,27.2198,o,1,27.2201,27.221,,0,,,27.2214,27.2223,,,,27.2227,27.2234,,0,6,6,6,1,cvmt/sample/s7.jpg,o,0.8498,,,,,,,,,,,,,,,,,,,,,,,,,
,,117220,080,1,2024-03-06_22h25.11.254,Memory and Syntax,2023.2.3,Win32,144.9275362,,,,,27.2246,29.2199,n,1,29.2204,29.2211,,0,,,29.2216,29.2225,,,,29.2229,29.2236,,0,7,7,7,1,cvmt/sample/s8.jpg,n,1.7125,,,,,,,,,,,,,,,,,,,,,,,,,
,,117220,080,1,2024-03-06_22h25.11.254,Memory and Syntax,2023.2.3,Win32,144.9275362,,,,,29.2248,31.2216,n,1,31.222,31.2228,,0,,,31.2232,31.224,,,,31.2244,31.2251,,0,8,8,8,1,cvmt/sample/s9.jpg,n,0.8809,,,,,,,,,,,,,,,,,,,,,,,,,
,,117220,080,1,2024-03-06_22h25.11.254,Memory and Syntax,2023.2.3,Win32,144.9275362,,,,,31.2263,33.2219,n,1,33.2222,33.223,,0,,,33.2234,33.2244,,,,33.2248,33.2256,,0,9,9,9,1,cvmt/sample/s10.jpg,n,0.7817,,,,,,,,,,,,,,,,,,,,,,,,,
,,117220,080,1,2024-03-06_22h25.11.254,Memory and Syntax,2023.2.3,Win32,144.9275362,,,,,33.2268,35.2216,n,0,35.2219,35.2227,,0,,,35.2231,38.7575,c,3.5025,,38.7579,43.8285,c,0,10,10,10,1,cvmt/sample/s11.jpg,o,0.7806,,5.0359,,,,,,,,,,,,,,,,,,,,,,,
,,117220,080,1,2024-03-06_22h25.11.254,Memory and Syntax,2023.2.3,Win32,144.9275362,,,43.8296,44.0366,44.042,46.0366,n,1,46.0366,46.0367,,0,,,46.0367,46.0373,,,,46.0373,46.0375,,0,0,0,0,1,cvmt/test_items/t1.jpeg,n,1.5985,,,,,,,,,,,,,,,,,,,,,,,,,
,,117220,080,1,2024-03-06_22h25.11.254,Memory and Syntax,2023.2.3,Win32,144.9275362,,,,,46.0376,48.0523,n,1,48.0523,48.0524,,0,,,48.0524,48.0525,,,,48.0525,48.0525,,0,1,1,1,1,cvmt/test_items/t2.jpeg,n,0.7207,,,,,,,,,,,,,,,,,,,,,,,,,
,,117220,080,1,2024-03-06_22h25.11.254,Memory and Syntax,2023.2.3,Win32,144.9275362,,,,,48.0526,50.0557,n,0,50.0557,50.0558,,0,,,50.0558,50.0559,,,,50.0559,50.056,,0,2,2,2,1,cvmt/test_items/t3.jpeg,o,1.2476,,,,,,,,,,,,,,,,,,,,,,,,,
,,117220,080,1,2024-03-06_22h25.11.254,Memory and Syntax,2023.2.3,Win32,144.9275362,,,,,50.0561,52.0361,n,0,52.0362,52.0362,,0,,,52.0362,52.0364,,,,52.0364,52.0364,,0,3,3,3,1,cvmt/test_items/t4.jpeg,o,0.6587,,,,,,,,,,,,,,,,,,,,,,,,,
,,117220,080,1,2024-03-06_22h25.11.254,Memory and Syntax,2023.2.3,Win32,144.9275362,,,,,52.0365,54.0366,n,0,54.0366,54.0367,,0,,,54.0367,54.0369,,,,54.0369,54.0369,,0,4,4,4,1,cvmt/test_items/t5.jpeg,o,1.1057,,,,,,,,,,,,,,,,,,,,,,,,,
,,117220,080,1,2024-03-06_22h25.11.254,Memory and Syntax,2023.2.3,Win32,144.9275362,,,,,54.037,56.0361,n,0,56.0361,56.0362,,0,,,56.0362,56.0364,,,,56.0364,56.0364,,0,5,5,5,1,cvmt/test_items/t6.jpeg,o,0.8603,,,,,,,,,,,,,,,,,,,,,,,,,
,,117220,080,1,2024-03-06_22h25.11.254,Memory and Syntax,2023.2.3,Win32,144.9275362,,,,,56.0365,58.0364,n,0,58.0364,58.0367,,0,,,58.0367,58.0368,,,,58.0369,58.0369,,0,6,6,6,1,cvmt/test_items/t7.jpeg,o,0.7584,,,,,,,,,,,,,,,,,,,,,,,,,
,,117220,080,1,2024-03-06_22h25.11.254,Memory and Syntax,2023.2.3,Win32,144.9275362,,,,,58.0369,60.0259,n,0,60.0259,60.0261,,0,,,60.0261,60.0263,,,,60.0263,60.0263,,0,7,7,7,1,cvmt/test_items/t8.jpeg,o,0.8917,,,,,,,,,,,,,,,,,,,,,,,,,
,,117220,080,1,2024-03-06_22h25.11.254,Memory and Syntax,2023.2.3,Win32,144.9275362,,,,,60.0263,62.0199,n,0,62.0199,62.02,,0,,,62.02,62.0201,,,,62.0201,62.0202,,0,8,8,8,1,cvmt/test_items/t9.jpeg,o,0.9951,,,,,,,,,,,,,,,,,,,,,,,,,
,,117220,080,1,2024-03-06_22h25.11.254,Memory and Syntax,2023.2.3,Win32,144.9275362,,,,,62.0202,64.0199,o,1,64.0199,64.0199,,0,,,64.0199,64.0201,,,,64.0201,64.0202,,0,9,9,9,1,cvmt/test_items/t10.jpeg,o,1.0939,,,,,,,,,,,,,,,,,,,,,,,,,
,,117220,080,1,2024-03-06_22h25.11.254,Memory and Syntax,2023.2.3,Win32,144.9275362,,,,,64.0202,66.0195,n,1,66.0195,66.0196,,0,,,66.0196,66.0197,,,,66.0197,66.0197,,0,10,10,10,1,cvmt/test_items/t11.jpeg,n,0.8042,,,,,,,,,,,,,,,,,,,,,,,,,
,,117220,080,1,2024-03-06_22h25.11.254,Memory and Syntax,2023.2.3,Win32,144.9275362,,,,,66.0199,68.0199,n,0,68.0199,68.02,,0,,,68.02,68.0201,,,,68.0201,68.0201,,0,11,11,11,1,cvmt/test_items/t12.jpeg,o,0.9271,,,,,,,,,,,,,,,,,,,,,,,,,
,,117220,080,1,2024-03-06_22h25.11.254,Memory and Syntax,2023.2.3,Win32,144.9275362,,,,,68.0202,69.9909,n,0,69.991,69.991,,0,,,69.991,69.9911,,,,69.9911,69.9911,,0,12,12,12,1,cvmt/test_items/t13.jpeg,o,1.2098,,,,,,,,,,,,,,,,,,,,,,,,,
,,117220,080,1,2024-03-06_22h25.11.254,Memory and Syntax,2023.2.3,Win32,144.9275362,,,,,69.9913,71.9864,o,1,71.9864,71.9865,,0,,,71.9865,71.9865,,,,71.9866,71.9866,,0,13,13,13,1,cvmt/test_items/t14.jpeg,o,0.7643,,,,,,,,,,,,,,,,,,,,,,,,,
,,117220,080,1,2024-03-06_22h25.11.254,Memory and Syntax,2023.2.3,Win32,144.9275362,,,,,71.9867,73.9881,o,1,73.9881,73.9882,,0,,,73.9882,73.9884,,,,73.9884,73.9885,,0,14,14,14,1,cvmt/test_items/t15.jpeg,o,0.9759,,,,,,,,,,,,,,,,,,,,,,,,,
,,117220,080,1,2024-03-06_22h25.11.254,Memory and Syntax,2023.2.3,Win32,144.9275362,,,,,73.9886,75.9713,o,1,75.9713,75.9714,,0,,,75.9714,75.9716,,,,75.9716,75.9716,,0,15,15,15,1,cvmt/test_items/t16.jpeg,o,0.8455,,,,,,,,,,,,,,,,,,,,,,,,,
,,117220,080,1,2024-03-06_22h25.11.254,Memory and Syntax,2023.2.3,Win32,144.9275362,,,,,75.9716,77.9566,n,0,77.9566,77.9568,,0,,,77.9568,77.9568,,,,77.9568,77.9569,,0,16,16,16,1,cvmt/test_items/t17.jpeg,o,1.446,,,,,,,,,,,,,,,,,,,,,,,,,
,,117220,080,1,2024-03-06_22h25.11.254,Memory and Syntax,2023.2.3,Win32,144.9275362,,,,,77.957,79.9546,o,1,79.9547,79.9547,,0,,,79.9547,79.9549,,,,79.9549,79.9549,,0,17,17,17,1,cvmt/test_items/t18.jpeg,o,1.0167,,,,,,,,,,,,,,,,,,,,,,,,,
,,117220,080,1,2024-03-06_22h25.11.254,Memory and Syntax,2023.2.3,Win32,144.9275362,,,,,79.9551,81.9424,n,1,81.9424,81.9425,,0,,,81.9425,81.9426,,,,81.9426,81.9426,,0,18,18,18,1,cvmt/test_items/t19.jpeg,n,1.0962,,,,,,,,,,,,,,,,,,,,,,,,,
,,117220,080,1,2024-03-06_22h25.11.254,Memory and Syntax,2023.2.3,Win32,144.9275362,,,,,81.9427,83.9364,n,0,83.9364,83.9365,,0,,,83.9366,83.9368,,,,83.9368,83.9368,,0,19,19,19,1,cvmt/test_items/t20.jpeg,o,0.7949,,,,,,,,,,,,,,,,,,,,,,,,,
,,117220,080,1,2024-03-06_22h25.11.254,Memory and Syntax,2023.2.3,Win32,144.9275362,,,,,83.9369,85.9361,n,0,85.9361,85.9362,,0,,,85.9363,85.9364,,,,85.9364,85.9365,,0,20,20,20,1,cvmt/test_items/t21.jpeg,o,0.785,,,,,,,,,,,,,,,,,,,,,,,,,
,,117220,080,1,2024-03-06_22h25.11.254,Memory and Syntax,2023.2.3,Win32,144.9275362,,,,,85.9365,87.9362,n,0,87.9363,87.9363,,0,,,87.9363,87.9365,,,,87.9365,87.9365,,0,21,21,21,1,cvmt/test_items/t22.jpeg,o,0.9424,,,,,,,,,,,,,,,,,,,,,,,,,
,,117220,080,1,2024-03-06_22h25.11.254,Memory and Syntax,2023.2.3,Win32,144.9275362,,,,,87.9366,89.9365,n,1,89.9365,89.9365,,0,,,89.9366,89.9367,,,,89.9367,89.9367,,0,22,22,22,1,cvmt/test_items/t23.jpeg,n,1.2426,,,,,,,,,,,,,,,,,,,,,,,,,
,,117220,080,1,2024-03-06_22h25.11.254,Memory and Syntax,2023.2.3,Win32,144.9275362,,,,,89.9368,91.9376,n,1,91.9376,91.9376,,0,,,91.9376,91.9378,,,,91.9379,91.9379,,0,23,23,23,1,cvmt/test_items/t24.jpeg,n,0.9174,,,,,,,,,,,,,,,,,,,,,,,,,
,,117220,080,1,2024-03-06_22h25.11.254,Memory and Syntax,2023.2.3,Win32,144.9275362,,,,,91.9379,93.9462,o,1,93.9462,93.9464,,0,,,93.9464,93.9465,,,,93.9465,93.9465,,0,24,24,24,1,cvmt/test_items/t25.jpeg,o,0.9813,,,,,,,,,,,,,,,,,,,,,,,,,
,,117220,080,1,2024-03-06_22h25.11.254,Memory and Syntax,2023.2.3,Win32,144.9275362,,,,,93.9468,95.9553,n,1,95.9553,95.9556,,0,,,95.9556,95.9557,,,,95.9557,95.9558,,0,25,25,25,1,cvmt/test_items/t26.jpeg,n,0.826,,,,,,,,,,,,,,,,,,,,,,,,,
,,117220,080,1,2024-03-06_22h25.11.254,Memory and Syntax,2023.2.3,Win32,144.9275362,,,,,95.9558,97.9532,o,1,97.9532,97.9534,,0,,,97.9534,97.9535,,,,97.9536,97.9536,,0,26,26,26,1,cvmt/test_items/t27.jpeg,o,1.6325,,,,,,,,,,,,,,,,,,,,,,,,,
,,117220,080,1,2024-03-06_22h25.11.254,Memory and Syntax,2023.2.3,Win32,144.9275362,,,,,97.9537,99.9217,n,1,99.9217,99.9218,,0,,,99.9218,99.9219,,,,99.9219,99.9219,,0,27,27,27,1,cvmt/test_items/t28.jpeg,n,1.0151,,,,,,,,,,,,,,,,,,,,,,,,,
,,117220,080,1,2024-03-06_22h25.11.254,Memory and Syntax,2023.2.3,Win32,144.9275362,,,,,99.9221,101.9377,n,1,101.9377,101.9378,,0,,,101.9378,101.9379,,,,101.9379,101.9379,,0,28,28,28,1,cvmt/test_items/t29.jpeg,n,0.7805,,,,,,,,,,,,,,,,,,,,,,,,,
,,117220,080,1,2024-03-06_22h25.11.254,Memory and Syntax,2023.2.3,Win32,144.9275362,,,,,101.9381,103.9378,o,1,103.9378,103.9379,,0,,,103.9379,103.938,,,,103.938,103.938,,0,29,29,29,1,cvmt/test_items/t30.jpeg,o,1.2296,,,,,,,,,,,,,,,,,,,,,,,,,
,,117220,080,1,2024-03-06_22h25.11.254,Memory and Syntax,2023.2.3,Win32,144.9275362,,,,,103.9381,105.9435,o,1,105.9435,105.9438,,0,,,105.9438,105.9439,,,,105.9439,105.9439,,0,30,30,30,1,cvmt/test_items/t31.jpeg,o,1.1849,,,,,,,,,,,,,,,,,,,,,,,,,
,,117220,080,1,2024-03-06_22h25.11.254,Memory and Syntax,2023.2.3,Win32,144.9275362,,,,,105.944,107.9409,n,1,107.9409,107.9411,,0,,,107.9411,107.9412,,,,107.9412,107.9412,,0,31,31,31,1,cvmt/test_items/t32.jpeg,n,0.7147,,,,,,,,,,,,,,,,,,,,,,,,,
,,117220,080,1,2024-03-06_22h25.11.254,Memory and Syntax,2023.2.3,Win32,144.9275362,,,,,107.9414,109.9367,,0,109.9368,112.1879,n,1,2.2334,,112.188,112.1917,,,,112.1917,112.1918,,0,32,32,32,1,cvmt/test_items/t33.jpeg,n,,,,,,,,,,,,,,,,,,,,,,,,,,
,,117220,080,1,2024-03-06_22h25.11.254,Memory and Syntax,2023.2.3,Win32,144.9275362,,,,,112.1919,114.2068,o,1,114.2068,114.2076,,0,,,114.2077,114.2078,,,,114.2078,114.2078,,0,33,33,33,1,cvmt/test_items/t34.jpeg,o,1.1847,,,,,,,,,,,,,,,,,,,,,,,,,
,,117220,080,1,2024-03-06_22h25.11.254,Memory and Syntax,2023.2.3,Win32,144.9275362,,,,,114.2078,116.2082,n,1,116.2082,116.2083,,0,,,116.2083,116.2085,,,,116.2085,116.2085,,0,34,34,34,1,cvmt/test_items/t35.jpeg,n,0.9246,,,,,,,,,,,,,,,,,,,,,,,,,
,,117220,080,1,2024-03-06_22h25.11.254,Memory and Syntax,2023.2.3,Win32,144.9275362,,,,,116.2085,118.2044,o,1,118.2044,118.2045,,0,,,118.2046,118.2046,,,,118.2046,118.2047,,0,35,35,35,1,cvmt/test_items/t36.jpeg,o,0.697,,,,,,,,,,,,,,,,,,,,,,,,,
,,117220,080,1,2024-03-06_22h25.11.254,Memory and Syntax,2023.2.3,Win32,144.9275362,,,,,118.2048,120.2029,o,0,120.2029,120.203,,0,,,120.2031,120.2032,,,,120.2032,120.2032,,0,36,36,36,1,cvmt/test_items/t37.jpeg,n,0.6961,,,,,,,,,,,,,,,,,,,,,,,,,
,,117220,080,1,2024-03-06_22h25.11.254,Memory and Syntax,2023.2.3,Win32,144.9275362,,,,,120.2032,122.2044,o,1,122.2045,122.2045,,0,,,122.2045,122.2048,,,,122.2048,122.2048,,0,37,37,37,1,cvmt/test_items/t38.jpeg,o,0.8985,,,,,,,,,,,,,,,,,,,,,,,,,
,,117220,080,1,2024-03-06_22h25.11.254,Memory and Syntax,2023.2.3,Win32,144.9275362,,,,,122.2049,124.2028,n,1,124.2029,124.203,,0,,,124.203,124.2032,,,,124.2032,124.2032,,0,38,38,38,1,cvmt/test_items/t39.jpeg,n,0.6567,,,,,,,,,,,,,,,,,,,,,,,,,
,,117220,080,1,2024-03-06_22h25.11.254,Memory and Syntax,2023.2.3,Win32,144.9275362,,,,,124.2032,126.2196,n,0,126.2196,126.2197,,0,,,126.2197,126.2198,,,,126.2199,126.2199,,0,39,39,39,1,cvmt/test_items/t40.jpeg,o,0.8305,,,,,,,,,,,,,,,,,,,,,,,,,
,,117220,080,1,2024-03-06_22h25.11.254,Memory and Syntax,2023.2.3,Win32,144.9275362,,,,,126.22,128.2134,o,0,128.2135,128.2135,,0,,,128.2135,128.2137,,,,128.2137,128.2137,,0,40,40,40,1,cvmt/test_items/t41.jpeg,n,0.9289,,,,,,,,,,,,,,,,,,,,,,,,,
,,117220,080,1,2024-03-06_22h25.11.254,Memory and Syntax,2023.2.3,Win32,144.9275362,,,,,128.2138,130.2377,o,1,130.2377,130.2378,,0,,,130.2378,130.238,,,,130.238,130.238,,0,41,41,41,1,cvmt/test_items/t42.jpeg,o,0.8577,,,,,,,,,,,,,,,,,,,,,,,,,
,,117220,080,1,2024-03-06_22h25.11.254,Memory and Syntax,2023.2.3,Win32,144.9275362,,,,,130.2381,132.2391,o,1,132.2391,132.2392,,0,,,132.2392,132.2393,,,,132.2393,132.2393,,0,42,42,42,1,cvmt/test_items/t43.jpeg,o,0.9152,,,,,,,,,,,,,,,,,,,,,,,,,
,,117220,080,1,2024-03-06_22h25.11.254,Memory and Syntax,2023.2.3,Win32,144.9275362,,,,,132.2395,134.2533,n,1,134.2533,134.2533,,0,,,134.2533,134.2534,,,,134.2534,134.2534,,0,43,43,43,1,cvmt/test_items/t44.jpeg,n,0.9032,,,,,,,,,,,,,,,,,,,,,,,,,
,,117220,080,1,2024-03-06_22h25.11.254,Memory and Syntax,2023.2.3,Win32,144.9275362,,,,,134.2535,136.2529,n,0,136.2529,136.253,,0,,,136.253,136.2531,,,,136.2531,136.2531,,0,44,44,44,1,cvmt/test_items/t45.jpeg,o,0.7694,,,,,,,,,,,,,,,,,,,,,,,,,
,,117220,080,1,2024-03-06_22h25.11.254,Memory and Syntax,2023.2.3,Win32,144.9275362,,,,,136.2532,138.2531,o,1,138.2531,138.2531,,0,,,138.2531,138.2533,,,,138.2533,138.2533,,0,45,45,45,1,cvmt/test_items/t46.jpeg,o,0.7577,,,,,,,,,,,,,,,,,,,,,,,,,
,,117220,080,1,2024-03-06_22h25.11.254,Memory and Syntax,2023.2.3,Win32,144.9275362,,,,,138.2534,140.2546,,0,140.2546,140.3046,n,0,0.0166,,140.3046,140.3047,,,,140.3047,140.3048,,0,46,46,46,1,cvmt/test_items/t47.jpeg,o,,,,,,,,,,,,,,,,,,,,,,,,,,
,,117220,080,1,2024-03-06_22h25.11.254,Memory and Syntax,2023.2.3,Win32,144.9275362,,,,,140.3049,142.2931,n,1,142.2931,142.2932,,0,,,142.2932,142.2933,,,,142.2933,142.2933,,0,47,47,47,1,cvmt/test_items/t48.jpeg,n,1.1448,,,,,,,,,,,,,,,,,,,,,,,,,
,,117220,080,1,2024-03-06_22h25.11.254,Memory and Syntax,2023.2.3,Win32,144.9275362,,,,,142.2934,144.3033,o,1,144.3033,144.3034,,0,,,144.3034,144.3036,,,,144.3036,144.3036,,0,48,48,48,1,cvmt/test_items/t49.jpeg,o,0.6747,,,,,,,,,,,,,,,,,,,,,,,,,
,,117220,080,1,2024-03-06_22h25.11.254,Memory and Syntax,2023.2.3,Win32,144.9275362,,,,,144.3037,146.3059,n,0,146.306,146.306,,0,,,146.306,146.3062,,,,146.3062,146.3062,,0,49,49,49,1,cvmt/test_items/t50.jpeg,o,1.0634,,,,,,,,,,,,,,,,,,,,,,,,,
,,117220,080,1,2024-03-06_22h25.11.254,Memory and Syntax,2023.2.3,Win32,144.9275362,,,,,146.3063,148.32,n,1,148.32,148.3201,,0,,,148.3201,148.3202,,,,148.3202,148.3203,,0,50,50,50,1,cvmt/test_items/t51.jpeg,n,0.7131,,,,,,,,,,,,,,,,,,,,,,,,,
,,117220,080,1,2024-03-06_22h25.11.254,Memory and Syntax,2023.2.3,Win32,144.9275362,,,,,148.3203,150.3437,o,1,150.3437,150.3437,,0,,,150.3437,150.3438,,,,150.3438,150.3438,,0,51,51,51,1,cvmt/test_items/t52.jpeg,o,0.6807,,,,,,,,,,,,,,,,,,,,,,,,,
,,117220,080,1,2024-03-06_22h25.11.254,Memory and Syntax,2023.2.3,Win32,144.9275362,,,,,150.344,152.3532,o,1,152.3532,152.3532,,0,,,152.3532,152.3533,,,,152.3533,152.3533,,0,52,52,52,1,cvmt/test_items/t53.jpeg,o,0.7637,,,,,,,,,,,,,,,,,,,,,,,,,
,,117220,080,1,2024-03-06_22h25.11.254,Memory and Syntax,2023.2.3,Win32,144.9275362,,,,,152.3534,154.3383,o,1,154.3383,154.3384,,0,,,154.3384,154.3386,,,,154.3386,154.3386,,0,53,53,53,1,cvmt/test_items/t54.jpeg,o,0.8652,,,,,,,,,,,,,,,,,,,,,,,,,
,,117220,080,1,2024-03-06_22h25.11.254,Memory and Syntax,2023.2.3,Win32,144.9275362,,,,,154.3386,156.3535,o,1,156.3535,156.3536,,0,,,156.3536,156.3537,,,,156.3537,156.3538,,0,54,54,54,1,cvmt/test_items/t55.jpeg,o,0.9302,,,,,,,,,,,,,,,,,,,,,,,,,
,,117220,080,1,2024-03-06_22h25.11.254,Memory and Syntax,2023.2.3,Win32,144.9275362,,,,,156.3538,158.3389,n,0,158.3389,158.3389,,0,,,158.3389,158.3391,,,,158.3391,158.3391,,0,55,55,55,1,cvmt/test_items/t56.jpeg,o,1.2303,,,,,,,,,,,,,,,,,,,,,,,,,
,,117220,080,1,2024-03-06_22h25.11.254,Memory and Syntax,2023.2.3,Win32,144.9275362,,,,,158.3391,160.3378,o,1,160.3378,160.3379,,0,,,160.3379,160.338,,,,160.338,160.3381,,0,56,56,56,1,cvmt/test_items/t57.jpeg,o,0.6307,,,,,,,,,,,,,,,,,,,,,,,,,
,,117220,080,1,2024-03-06_22h25.11.254,Memory and Syntax,2023.2.3,Win32,144.9275362,,,,,160.3381,162.3245,n,1,162.3245,162.3247,,0,,,162.3247,162.3249,,,,162.3249,162.3249,,0,57,57,57,1,cvmt/test_items/t58.jpeg,n,0.847,,,,,,,,,,,,,,,,,,,,,,,,,
,,117220,080,1,2024-03-06_22h25.11.254,Memory and Syntax,2023.2.3,Win32,144.9275362,,,,,162.3249,164.3207,n,1,164.3207,164.3209,,0,,,164.3209,164.321,,,,164.321,164.321,,0,58,58,58,1,cvmt/test_items/t59.jpeg,n,0.8971,,,,,,,,,,,,,,,,,,,,,,,,,
,,117220,080,1,2024-03-06_22h25.11.254,Memory and Syntax,2023.2.3,Win32,144.9275362,,,,,164.3211,166.3205,o,1,166.3206,166.3207,,0,,,166.3207,166.3209,,,,166.3209,166.3209,,0,59,59,59,1,cvmt/test_items/t60.jpeg,o,0.8439,,,,,,,,,,,,,,,,,,,,,,,,,
,,117220,080,1,2024-03-06_22h25.11.254,Memory and Syntax,2023.2.3,Win32,144.9275362,,,,,166.3209,168.321,n,0,168.321,168.3211,,0,,,168.3212,168.3214,,,,168.3214,168.3214,,0,60,60,60,1,cvmt/test_items/t61.jpeg,o,1.0818,,,,,,,,,,,,,,,,,,,,,,,,,
,,117220,080,1,2024-03-06_22h25.11.254,Memory and Syntax,2023.2.3,Win32,144.9275362,,,,,168.3214,170.3214,o,1,170.3214,170.3215,,0,,,170.3215,170.3217,,,,170.3217,170.3217,,0,61,61,61,1,cvmt/test_items/t62.jpeg,o,0.9323,,,,,,,,,,,,,,,,,,,,,,,,,
,,117220,080,1,2024-03-06_22h25.11.254,Memory and Syntax,2023.2.3,Win32,144.9275362,,,,,170.3218,172.3194,n,0,172.3194,172.3195,,0,,,172.3195,172.3196,,,,172.3196,172.3197,,0,62,62,62,1,cvmt/test_items/t63.jpeg,o,1.2007,,,,,,,,,,,,,,,,,,,,,,,,,
,,117220,080,1,2024-03-06_22h25.11.254,Memory and Syntax,2023.2.3,Win32,144.9275362,,,,,172.3197,174.3452,n,0,174.3452,174.3452,,0,,,174.3452,174.3454,,,,174.3455,174.3455,,0,63,63,63,1,cvmt/test_items/t64.jpeg,o,1.1852,,,,,,,,,,,,,,,,,,,,,,,,,
,,117220,080,1,2024-03-06_22h25.11.254,Memory and Syntax,2023.2.3,Win32,144.9275362,,,,,174.3457,176.3535,o,1,176.3535,176.3536,,0,,,176.3536,176.3537,,,,176.3537,176.3537,,0,64,64,64,1,cvmt/test_items/t65.jpeg,o,0.6939,,,,,,,,,,,,,,,,,,,,,,,,,
,,117220,080,1,2024-03-06_22h25.11.254,Memory and Syntax,2023.2.3,Win32,144.9275362,,,,,176.3538,178.3713,o,1,178.3713,178.3715,,0,,,178.3716,178.3717,,,,178.3717,178.3718,,0,65,65,65,1,cvmt/test_items/t66.jpeg,o,0.8972,,,,,,,,,,,,,,,,,,,,,,,,,
,,117220,080,1,2024-03-06_22h25.11.254,Memory and Syntax,2023.2.3,Win32,144.9275362,,,,,178.3718,180.387,n,1,180.387,180.3872,,0,,,180.3872,180.3874,,,,180.3874,180.3874,,0,66,66,66,1,cvmt/test_items/t67.jpeg,n,1.115,,,,,,,,,,,,,,,,,,,,,,,,,
,,117220,080,1,2024-03-06_22h25.11.254,Memory and Syntax,2023.2.3,Win32,144.9275362,,,,,180.3874,182.3711,o,1,182.3711,182.3712,,0,,,182.3712,182.3714,,,,182.3714,182.3714,,0,67,67,67,1,cvmt/test_items/t68.jpeg,o,1.1625,,,,,,,,,,,,,,,,,,,,,,,,,
,,117220,080,1,2024-03-06_22h25.11.254,Memory and Syntax,2023.2.3,Win32,144.9275362,,,,,182.3715,184.3593,o,1,184.3594,184.3595,,0,,,184.3595,184.3596,,,,184.3596,184.3596,,0,68,68,68,1,cvmt/test_items/t69.jpeg,o,1.5602,,,,,,,,,,,,,,,,,,,,,,,,,
,,117220,080,1,2024-03-06_22h25.11.254,Memory and Syntax,2023.2.3,Win32,144.9275362,,,,,184.3596,186.339,o,1,186.339,186.3391,,0,,,186.3391,186.3392,,,,186.3392,186.3393,,0,69,69,69,1,cvmt/test_items/t70.jpeg,o,0.8295,,,,,,,,,,,,,,,,,,,,,,,,,
,,117220,080,1,2024-03-06_22h25.11.254,Memory and Syntax,2023.2.3,Win32,144.9275362,,,,,186.3393,188.3363,o,0,188.3363,188.3366,,0,,,188.3366,188.3368,,,,188.3368,188.3368,,0,70,70,70,1,cvmt/test_items/t71.jpeg,n,1.3325,,,,,,,,,,,,,,,,,,,,,,,,,
,,117220,080,1,2024-03-06_22h25.11.254,Memory and Syntax,2023.2.3,Win32,144.9275362,,,,,188.3369,190.32,o,1,190.32,190.3201,,0,,,190.3201,190.3203,,,,190.3203,190.3203,,0,71,71,71,1,cvmt/test_items/t72.jpeg,o,0.7476,,,,,,,,,,,,,,,,,,,,,,,,,
,,117220,080,1,2024-03-06_22h25.11.254,Memory and Syntax,2023.2.3,Win32,144.9275362,,,,,190.3204,192.3115,o,1,192.3115,192.3116,,0,,,192.3116,192.3117,,,,192.3117,192.3117,,0,72,72,72,1,cvmt/test_items/t73.jpeg,o,0.7481,,,,,,,,,,,,,,,,,,,,,,,,,
,,117220,080,1,2024-03-06_22h25.11.254,Memory and Syntax,2023.2.3,Win32,144.9275362,,,,,192.3118,194.3033,n,0,194.3033,194.3035,,0,,,194.3035,194.3037,,,,194.3038,194.3038,,0,73,73,73,1,cvmt/test_items/t74.jpeg,o,0.969,,,,,,,,,,,,,,,,,,,,,,,,,
,,117220,080,1,2024-03-06_22h25.11.254,Memory and Syntax,2023.2.3,Win32,144.9275362,,,,,194.3038,196.3204,n,0,196.3205,196.3205,,0,,,196.3205,196.3205,,,,196.3205,196.3206,,0,74,74,74,1,cvmt/test_items/t75.jpeg,o,1.0289,,,,,,,,,,,,,,,,,,,,,,,,,
,,117220,080,1,2024-03-06_22h25.11.254,Memory and Syntax,2023.2.3,Win32,144.9275362,,,,,196.3207,198.3279,o,1,198.328,198.3281,,0,,,198.3281,198.3282,,,,198.3282,198.3282,,0,75,75,75,1,cvmt/test_items/t76.jpeg,o,0.764,,,,,,,,,,,,,,,,,,,,,,,,,
,,117220,080,1,2024-03-06_22h25.11.254,Memory and Syntax,2023.2.3,Win32,144.9275362,,,,,198.3282,200.3248,n,0,200.3248,200.3249,,0,,,200.3249,200.325,,,,200.325,200.325,,0,76,76,76,1,cvmt/test_items/t77.jpeg,o,1.0083,,,,,,,,,,,,,,,,,,,,,,,,,
,,117220,080,1,2024-03-06_22h25.11.254,Memory and Syntax,2023.2.3,Win32,144.9275362,,,,,200.3251,202.3222,o,1,202.3222,202.3223,,0,,,202.3223,202.3225,,,,202.3225,202.3225,,0,77,77,77,1,cvmt/test_items/t78.jpeg,o,0.9826,,,,,,,,,,,,,,,,,,,,,,,,,
,,117220,080,1,2024-03-06_22h25.11.254,Memory and Syntax,2023.2.3,Win32,144.9275362,,,,,202.3226,204.3077,n,0,204.3077,204.3078,,0,,,204.3078,204.308,,,,204.308,204.308,,0,78,78,78,1,cvmt/test_items/t79.jpeg,o,1.0065,,,,,,,,,,,,,,,,,,,,,,,,,
,,117220,080,1,2024-03-06_22h25.11.254,Memory and Syntax,2023.2.3,Win32,144.9275362,,,,,204.308,206.2949,n,1,206.2949,206.2949,,0,,,206.2949,206.2951,,,,206.2951,206.2951,,0,79,79,79,1,cvmt/test_items/t80.jpeg,n,1.2642,,,,,,,,,,,,,,,,,,,,,,,,,
,,117220,080,1,2024-03-06_22h25.11.254,Memory and Syntax,2023.2.3,Win32,144.9275362,,,,,206.2951,208.2864,n,0,208.2864,208.2864,,0,,,208.2864,208.2866,,,,208.2866,208.2866,,0,80,80,80,1,cvmt/test_items/t81.jpeg,o,0.9899,,,,,,,,,,,,,,,,,,,,,,,,,
,,117220,080,1,2024-03-06_22h25.11.254,Memory and Syntax,2023.2.3,Win32,144.9275362,,,,,208.2867,210.2881,o,1,210.2881,210.2882,,0,,,210.2882,210.2882,,,,210.2883,210.2883,,0,81,81,81,1,cvmt/test_items/t82.jpeg,o,0.5808,,,,,,,,,,,,,,,,,,,,,,,,,
,,117220,080,1,2024-03-06_22h25.11.254,Memory and Syntax,2023.2.3,Win32,144.9275362,,,,,210.2884,212.2872,,0,212.2872,213.7712,o,1,1.4509,,213.7712,213.775,,,,213.7751,213.7751,,0,82,82,82,1,cvmt/test_items/t83.jpeg,o,,,,,,,,,,,,,,,,,,,,,,,,,,
,,117220,080,1,2024-03-06_22h25.11.254,Memory and Syntax,2023.2.3,Win32,144.9275362,,,,,213.7751,215.7716,o,1,215.7716,215.7724,,0,,,215.7724,215.7725,,,,215.7725,215.7725,,0,83,83,83,1,cvmt/test_items/t84.jpeg,o,0.748,,,,,,,,,,,,,,,,,,,,,,,,,
,,117220,080,1,2024-03-06_22h25.11.254,Memory and Syntax,2023.2.3,Win32,144.9275362,,,,,215.7725,217.7703,n,0,217.7703,217.7706,,0,,,217.7706,217.7707,,,,217.7707,217.7707,,0,84,84,84,1,cvmt/test_items/t85.jpeg,o,1.1475,,,,,,,,,,,,,,,,,,,,,,,,,
,,117220,080,1,2024-03-06_22h25.11.254,Memory and Syntax,2023.2.3,Win32,144.9275362,,,,,217.7708,219.7535,o,1,219.7535,219.7537,,0,,,219.7537,219.7538,,,,219.7538,219.7538,,0,85,85,85,1,cvmt/test_items/t86.jpeg,o,0.7147,,,,,,,,,,,,,,,,,,,,,,,,,
,,117220,080,1,2024-03-06_22h25.11.254,Memory and Syntax,2023.2.3,Win32,144.9275362,,,,,219.7539,221.7533,n,0,221.7534,221.7534,,0,,,221.7534,221.7535,,,,221.7535,221.7536,,0,86,86,86,1,cvmt/test_items/t87.jpeg,o,1.8131,,,,,,,,,,,,,,,,,,,,,,,,,
,,117220,080,1,2024-03-06_22h25.11.254,Memory and Syntax,2023.2.3,Win32,144.9275362,,,,,221.7536,223.7534,o,0,223.7535,223.7536,,0,,,223.7536,223.7538,,,,223.7538,223.7538,,0,87,87,87,1,cvmt/test_items/t88.jpeg,n,1.2303,,,,,,,,,,,,,,,,,,,,,,,,,
,,117220,080,1,2024-03-06_22h25.11.254,Memory and Syntax,2023.2.3,Win32,144.9275362,,,,,223.7538,225.7542,o,0,225.7543,225.7543,,0,,,225.7543,225.7544,,,,225.7544,225.7545,,0,88,88,88,1,cvmt/test_items/t89.jpeg,n,0.6622,,,,,,,,,,,,,,,,,,,,,,,,,
,,117220,080,1,2024-03-06_22h25.11.254,Memory and Syntax,2023.2.3,Win32,144.9275362,,,,,225.7546,227.7589,o,1,227.7589,227.759,,0,,,227.7591,227.7592,,,,227.7592,227.7592,,0,89,89,89,1,cvmt/test_items/t90.jpeg,o,0.6468,,,,,,,,,,,,,,,,,,,,,,,,,
,,117220,080,1,2024-03-06_22h25.11.254,Memory and Syntax,2023.2.3,Win32,144.9275362,,,,,227.7593,229.7554,o,1,229.7554,229.7555,,0,,,229.7555,229.7557,,,,229.7557,229.7557,,0,90,90,90,1,cvmt/test_items/t91.jpeg,o,0.8454,,,,,,,,,,,,,,,,,,,,,,,,,
,,117220,080,1,2024-03-06_22h25.11.254,Memory and Syntax,2023.2.3,Win32,144.9275362,,,,,229.7558,231.7442,n,0,231.7443,231.7444,,0,,,231.7444,231.7445,,,,231.7445,231.7445,,0,91,91,91,1,cvmt/test_items/t92.jpeg,o,1.0478,,,,,,,,,,,,,,,,,,,,,,,,,
,,117220,080,1,2024-03-06_22h25.11.254,Memory and Syntax,2023.2.3,Win32,144.9275362,,,,,231.7446,233.7215,o,1,233.7216,233.7216,,0,,,233.7216,233.7217,,,,233.7218,233.7218,,0,92,92,92,1,cvmt/test_items/t93.jpeg,o,0.6293,,,,,,,,,,,,,,,,,,,,,,,,,
,,117220,080,1,2024-03-06_22h25.11.254,Memory and Syntax,2023.2.3,Win32,144.9275362,,,,,233.7218,235.7069,n,0,235.7069,235.707,,0,,,235.707,235.7071,,,,235.7071,235.7071,,0,93,93,93,1,cvmt/test_items/t94.jpeg,o,1.1449,,,,,,,,,,,,,,,,,,,,,,,,,
,,117220,080,1,2024-03-06_22h25.11.254,Memory and Syntax,2023.2.3,Win32,144.9275362,,,,,235.7073,237.7029,n,0,237.703,237.703,,0,,,237.703,237.7032,,,,237.7032,237.7032,,0,94,94,94,1,cvmt/test_items/t95.jpeg,o,0.8666,,,,,,,,,,,,,,,,,,,,,,,,,
,,117220,080,1,2024-03-06_22h25.11.254,Memory and Syntax,2023.2.3,Win32,144.9275362,,,,,237.7034,239.7209,o,1,239.7209,239.721,,0,,,239.721,239.7211,,,,239.7211,239.7211,,0,95,95,95,1,cvmt/test_items/t96.jpeg,o,0.6331,,,,,,,,,,,,,,,,,,,,,,,,,
,,117220,080,1,2024-03-06_22h25.11.254,Memory and Syntax,2023.2.3,Win32,144.9275362,,,,,239.7212,241.7217,o,1,241.7217,241.7217,,0,,,241.7217,241.7218,,,,241.7218,241.7218,,0,96,96,96,1,cvmt/test_items/t97.jpeg,o,0.5988,,,,,,,,,,,,,,,,,,,,,,,,,
,,117220,080,1,2024-03-06_22h25.11.254,Memory and Syntax,2023.2.3,Win32,144.9275362,,,,,241.7219,243.7374,o,0,243.7374,243.7375,,0,,,243.7375,243.7376,,,,243.7376,243.7376,,0,97,97,97,1,cvmt/test_items/t98.jpeg,n,0.8805,,,,,,,,,,,,,,,,,,,,,,,,,
,,117220,080,1,2024-03-06_22h25.11.254,Memory and Syntax,2023.2.3,Win32,144.9275362,,,,,243.7377,245.7214,n,0,245.7214,245.7214,,0,,,245.7214,245.7216,,,,245.7216,245.7216,,0,98,98,98,1,cvmt/test_items/t99.jpeg,o,1.1461,,,,,,,,,,,,,,,,,,,,,,,,,
,,117220,080,1,2024-03-06_22h25.11.254,Memory and Syntax,2023.2.3,Win32,144.9275362,,,,,245.7216,247.7036,o,1,247.7037,247.7038,,0,,,247.7038,247.704,,,,247.704,247.7041,,0,99,99,99,1,cvmt/test_items/t100.jpeg,o,0.7208,,,,,,,,,,,,,,,,,,,,,,,,,
,,117220,080,1,2024-03-06_22h25.11.254,Memory and Syntax,2023.2.3,Win32,144.9275362,,,,,247.7041,249.7047,n,0,249.7047,249.7048,,0,,,249.7048,249.7049,,,,249.7049,249.705,,0,100,100,100,1,cvmt/test_items/t101.jpeg,o,0.9242,,,,,,,,,,,,,,,,,,,,,,,,,
,,117220,080,1,2024-03-06_22h25.11.254,Memory and Syntax,2023.2.3,Win32,144.9275362,,,,,249.7051,251.6947,o,1,251.6947,251.6948,,0,,,251.6948,251.6949,,,,251.6949,251.6949,,0,101,101,101,1,cvmt/test_items/t102.jpeg,o,0.6556,,,,,,,,,,,,,,,,,,,,,,,,,
,,117220,080,1,2024-03-06_22h25.11.254,Memory and Syntax,2023.2.3,Win32,144.9275362,,,,,251.695,253.6916,o,1,253.6916,253.6917,,0,,,253.6917,253.6919,,,,253.6919,253.6919,,0,102,102,102,1,cvmt/test_items/t103.jpeg,o,1.8966,,,,,,,,,,,,,,,,,,,,,,,,,
,,117220,080,1,2024-03-06_22h25.11.254,Memory and Syntax,2023.2.3,Win32,144.9275362,,,,,253.692,255.6884,o,1,255.6884,255.6885,,0,,,255.6885,255.6886,,,,255.6886,255.6886,,0,103,103,103,1,cvmt/test_items/t104.jpeg,o,0.7757,,,,,,,,,,,,,,,,,,,,,,,,,
,,117220,080,1,2024-03-06_22h25.11.254,Memory and Syntax,2023.2.3,Win32,144.9275362,,,,,255.6887,257.6704,n,1,257.6704,257.6705,,0,,,257.6705,257.6707,,,,257.6707,257.6708,,0,104,104,104,1,cvmt/test_items/t105.jpeg,n,0.6508,,,,,,,,,,,,,,,,,,,,,,,,,
,,117220,080,1,2024-03-06_22h25.11.254,Memory and Syntax,2023.2.3,Win32,144.9275362,,,,,257.6709,259.6704,o,1,259.6704,259.6704,,0,,,259.6704,259.6706,,,,259.6706,259.6707,,0,105,105,105,1,cvmt/test_items/t106.jpeg,o,0.6283,,,,,,,,,,,,,,,,,,,,,,,,,
,,117220,080,1,2024-03-06_22h25.11.254,Memory and Syntax,2023.2.3,Win32,144.9275362,,,,,259.6707,261.6702,o,1,261.6703,261.6704,,0,,,261.6704,261.6704,,,,261.6704,261.6705,,0,106,106,106,1,cvmt/test_items/t107.jpeg,o,0.7238,,,,,,,,,,,,,,,,,,,,,,,,,
,,117220,080,1,2024-03-06_22h25.11.254,Memory and Syntax,2023.2.3,Win32,144.9275362,,,,,261.6705,263.6704,n,0,263.6704,263.6704,,0,,,263.6704,263.6705,,,,263.6705,263.6705,,0,107,107,107,1,cvmt/test_items/t108.jpeg,o,0.9065,,,,,,,,,,,,,,,,,,,,,,,,,
,,117220,080,1,2024-03-06_22h25.11.254,Memory and Syntax,2023.2.3,Win32,144.9275362,,,,,263.6706,265.6549,o,1,265.6549,265.655,,0,,,265.655,265.655,,,,265.655,265.655,,0,108,108,108,1,cvmt/test_items/t109.jpeg,o,1.1071,,,,,,,,,,,,,,,,,,,,,,,,,
,,117220,080,1,2024-03-06_22h25.11.254,Memory and Syntax,2023.2.3,Win32,144.9275362,,,,,265.6552,267.6571,n,0,267.6572,267.6572,,0,,,267.6572,267.6574,,,,267.6574,267.6574,,0,109,109,109,1,cvmt/test_items/t110.jpeg,o,0.8308,,,,,,,,,,,,,,,,,,,,,,,,,
,,117220,080,1,2024-03-06_22h25.11.254,Memory and Syntax,2023.2.3,Win32,144.9275362,,,,,267.6575,269.6587,o,1,269.6587,269.6587,,0,,,269.6587,269.6589,,,,269.6589,269.659,,0,110,110,110,1,cvmt/test_items/t111.jpeg,o,0.6434,,,,,,,,,,,,,,,,,,,,,,,,,
,,117220,080,1,2024-03-06_22h25.11.254,Memory and Syntax,2023.2.3,Win32,144.9275362,,,,,269.6591,271.6325,o,1,271.6326,271.6327,,0,,,271.6327,271.6329,,,,271.6329,271.6329,,0,111,111,111,1,cvmt/test_items/t112.jpeg,o,1.0441,,,,,,,,,,,,,,,,,,,,,,,,,
,,117220,080,1,2024-03-06_22h25.11.254,Memory and Syntax,2023.2.3,Win32,144.9275362,,,,,271.633,273.6373,o,0,273.6373,273.6374,,0,,,273.6374,273.6374,,,,273.6374,273.6375,,0,112,112,112,1,cvmt/test_items/t113.jpeg,n,1.3043,,,,,,,,,,,,,,,,,,,,,,,,,
,,117220,080,1,2024-03-06_22h25.11.254,Memory and Syntax,2023.2.3,Win32,144.9275362,,,,,273.6376,275.6371,n,0,275.6371,275.6372,,0,,,275.6372,275.6374,,,,275.6374,275.6375,,0,113,113,113,1,cvmt/test_items/t114.jpeg,o,0.9372,,,,,,,,,,,,,,,,,,,,,,,,,
,,117220,080,1,2024-03-06_22h25.11.254,Memory and Syntax,2023.2.3,Win32,144.9275362,,,,,275.6375,277.6385,o,1,277.6385,277.6385,,0,,,277.6386,277.6387,,,,277.6387,277.6387,,0,114,114,114,1,cvmt/test_items/t115.jpeg,o,0.6767,,,,,,,,,,,,,,,,,,,,,,,,,
,,117220,080,1,2024-03-06_22h25.11.254,Memory and Syntax,2023.2.3,Win32,144.9275362,,,,,277.6389,279.6202,o,1,279.6203,279.6204,,0,,,279.6204,279.6205,,,,279.6205,279.6205,,0,115,115,115,1,cvmt/test_items/t116.jpeg,o,0.762,,,,,,,,,,,,,,,,,,,,,,,,,
,,117220,080,1,2024-03-06_22h25.11.254,Memory and Syntax,2023.2.3,Win32,144.9275362,,,,,279.6206,281.6373,o,1,281.6373,281.6374,,0,,,281.6374,281.6375,,,,281.6375,281.6375,,0,116,116,116,1,cvmt/test_items/t117.jpeg,o,0.7552,,,,,,,,,,,,,,,,,,,,,,,,,
,,117220,080,1,2024-03-06_22h25.11.254,Memory and Syntax,2023.2.3,Win32,144.9275362,,,,,281.6377,283.6538,o,1,283.6538,283.6539,,0,,,283.654,283.6542,,,,283.6542,283.6542,,0,117,117,117,1,cvmt/test_items/t118.jpeg,o,0.9199,,,,,,,,,,,,,,,,,,,,,,,,,
,,117220,080,1,2024-03-06_22h25.11.254,Memory and Syntax,2023.2.3,Win32,144.9275362,,,,,283.6543,285.6556,o,1,285.6556,285.6556,,0,,,285.6556,285.6558,,,,285.6558,285.6558,,0,118,118,118,1,cvmt/test_items/t119.jpeg,o,0.7104,,,,,,,,,,,,,,,,,,,,,,,,,
,,117220,080,1,2024-03-06_22h25.11.254,Memory and Syntax,2023.2.3,Win32,144.9275362,,,,,285.656,287.6536,o,1,287.6536,287.6537,,0,,,287.6537,287.6538,,,,287.6538,287.6538,,0,119,119,119,1,cvmt/test_items/t120.jpeg,o,0.9123,,,,,,,,,,,,,,,,,,,,,,,,,
,,117220,080,1,2024-03-06_22h25.11.254,Memory and Syntax,2023.2.3,Win32,144.9275362,,,,,287.6538,289.6556,n,0,289.6556,289.6557,,0,,,289.6558,289.6559,,,,289.6559,289.6559,,0,120,120,120,1,cvmt/test_items/t121.jpeg,o,1.1367,,,,,,,,,,,,,,,,,,,,,,,,,
,,117220,080,1,2024-03-06_22h25.11.254,Memory and Syntax,2023.2.3,Win32,144.9275362,,,,,289.6559,291.6541,o,1,291.6541,291.6542,,0,,,291.6542,291.6545,,,,291.6545,291.6545,,0,121,121,121,1,cvmt/test_items/t122.jpeg,o,0.6929,,,,,,,,,,,,,,,,,,,,,,,,,
,,117220,080,1,2024-03-06_22h25.11.254,Memory and Syntax,2023.2.3,Win32,144.9275362,,,,,291.6545,293.6535,o,0,293.6535,293.6537,,0,,,293.6537,293.6539,,,,293.6539,293.6539,,0,122,122,122,1,cvmt/test_items/t123.jpeg,n,1.1741,,,,,,,,,,,,,,,,,,,,,,,,,
,,117220,080,1,2024-03-06_22h25.11.254,Memory and Syntax,2023.2.3,Win32,144.9275362,,,,,293.6539,295.6534,n,0,295.6534,295.6536,,0,,,295.6536,295.6537,,,,295.6537,295.6537,,0,123,123,123,1,cvmt/test_items/t124.jpeg,o,1.5269,,,,,,,,,,,,,,,,,,,,,,,,,
,,117220,080,1,2024-03-06_22h25.11.254,Memory and Syntax,2023.2.3,Win32,144.9275362,,,,,295.6537,297.6368,o,1,297.6368,297.6368,,0,,,297.6368,297.637,,,,297.637,297.6371,,0,124,124,124,1,cvmt/test_items/t125.jpeg,o,0.5927,,,,,,,,,,,,,,,,,,,,,,,,,
,,117220,080,1,2024-03-06_22h25.11.254,Memory and Syntax,2023.2.3,Win32,144.9275362,,,,,297.6371,299.6387,o,1,299.6388,299.6388,,0,,,299.6389,299.639,,,,299.639,299.639,,0,125,125,125,1,cvmt/test_items/t126.jpeg,o,0.7254,,,,,,,,,,,,,,,,,,,,,,,,,
,,117220,080,1,2024-03-06_22h25.11.254,Memory and Syntax,2023.2.3,Win32,144.9275362,,,,,299.639,301.6218,o,1,301.6218,301.6218,,0,,,301.6219,301.622,,,,301.622,301.622,,0,126,126,126,1,cvmt/test_items/t127.jpeg,o,0.6282,,,,,,,,,,,,,,,,,,,,,,,,,
,,117220,080,1,2024-03-06_22h25.11.254,Memory and Syntax,2023.2.3,Win32,144.9275362,,,,,301.622,303.6205,o,1,303.6205,303.6206,,0,,,303.6206,303.6208,,,,303.6208,303.6208,,0,127,127,127,1,cvmt/test_items/t128.jpeg,o,0.7662,,,,,,,,,,,,,,,,,,,,,,,,,
,,117220,080,1,2024-03-06_22h25.11.254,Memory and Syntax,2023.2.3,Win32,144.9275362,,,,,303.6209,305.6097,o,1,305.6097,305.6098,,0,,,305.6098,305.6099,,,,305.6099,305.61,,0,128,128,128,1,cvmt/test_items/t129.jpeg,o,0.7566,,,,,,,,,,,,,,,,,,,,,,,,,
,,117220,080,1,2024-03-06_22h25.11.254,Memory and Syntax,2023.2.3,Win32,144.9275362,,,,,305.6101,307.5896,o,1,307.5896,307.5897,,0,,,307.5897,307.5898,,,,307.5898,307.5898,,0,129,129,129,1,cvmt/test_items/t130.jpeg,o,0.7956,,,,,,,,,,,,,,,,,,,,,,,,,
,,117220,080,1,2024-03-06_22h25.11.254,Memory and Syntax,2023.2.3,Win32,144.9275362,,,,,307.5899,309.5705,o,0,309.5706,309.5707,,0,,,309.5707,309.5708,,,,309.5708,309.5708,,0,130,130,130,1,cvmt/test_items/t131.jpeg,n,0.7944,,,,,,,,,,,,,,,,,,,,,,,,,
,,117220,080,1,2024-03-06_22h25.11.254,Memory and Syntax,2023.2.3,Win32,144.9275362,,,,,309.5709,311.5708,o,1,311.5708,311.5709,,0,,,311.5709,311.5711,,,,311.5711,311.5711,,0,131,131,131,1,cvmt/test_items/t132.jpeg,o,0.7023,,,,,,,,,,,,,,,,,,,,,,,,,
,,117220,080,1,2024-03-06_22h25.11.254,Memory and Syntax,2023.2.3,Win32,144.9275362,,,,,311.5711,313.5422,o,1,313.5423,313.5423,,0,,,313.5424,313.5425,,,,313.5425,313.5425,,0,132,132,132,1,cvmt/test_items/t133.jpeg,o,0.711,,,,,,,,,,,,,,,,,,,,,,,,,
,,117220,080,1,2024-03-06_22h25.11.254,Memory and Syntax,2023.2.3,Win32,144.9275362,,,,,313.5425,315.5386,o,1,315.5387,315.5387,,0,,,315.5387,315.5389,,,,315.5389,315.5389,,0,133,133,133,1,cvmt/test_items/t134.jpeg,o,0.88,,,,,,,,,,,,,,,,,,,,,,,,,
,,117220,080,1,2024-03-06_22h25.11.254,Memory and Syntax,2023.2.3,Win32,144.9275362,,,,,315.539,317.5542,o,1,317.5543,317.5543,,0,,,317.5543,317.5545,,,,317.5545,317.5545,,0,134,134,134,1,cvmt/test_items/t135.jpeg,o,1.0745,,,,,,,,,,,,,,,,,,,,,,,,,
,,117220,080,1,2024-03-06_22h25.11.254,Memory and Syntax,2023.2.3,Win32,144.9275362,,,,,,,,,,,,,,,,,,,,,,,,,,,,,,,,,,317.5547,317.5547,0,317.5579,319.9879,space,2.406,,319.991,323.2542,4,3.263,0,0,0,0,1,1,1,WOV,8B,Practiced the virtuoso many pieces.
,,117220,080,1,2024-03-06_22h25.11.254,Memory and Syntax,2023.2.3,Win32,144.9275362,,,,,,,,,,,,,,,,,,,,,,,,,,,,,,,,,,,,,,,,,,323.2544,325.8249,5.9,2.5699,0,1,1,1,1,1,2,AS,6A,The rickety old boat sank.
,,117220,080,1,2024-03-06_22h25.11.254,Memory and Syntax,2023.2.3,Win32,144.9275362,,,,,,,,,,,,,,,,,,,,,,,,,,,,,,,,,,,,,,,,,,325.825,328.4223,6.8,2.5965,0,2,2,2,1,1,3,WO,6A,The waiter set the table promptly.
,,117220,080,1,2024-03-06_22h25.11.254,Memory and Syntax,2023.2.3,Win32,144.9275362,,,,,,,,,,,,,,,,,,,,,,,,,,,,,,,,,,,,,,,,,,328.4223,332.0041,3.4,3.581,0,3,3,3,1,1,4,control,12B,They anticipate that everybody you do will contact Megan.
,,117220,080,1,2024-03-06_22h25.11.254,Memory and Syntax,2023.2.3,Win32,144.9275362,,,,,,,,,,,,,,,,,,,,,,,,,,,,,,,,,,,,,,,,,,332.0042,334.8558,5.3,2.851,0,4,4,4,1,1,5,ASV,11B,The cat moved himself away.
,,117220,080,1,2024-03-06_22h25.11.254,Memory and Syntax,2023.2.3,Win32,144.9275362,,,,,,,,,,,,,,,,,,,,,,,,,,,,,,,,,,,,,,,,,,334.8559,337.3905,3.7,2.5339,0,5,5,5,1,1,6,ASV,7B,She laughed herself at the dog.
,,117220,080,1,2024-03-06_22h25.11.254,Memory and Syntax,2023.2.3,Win32,144.9275362,,,,,,,,,,,,,,,,,,,,,,,,,,,,,,,,,,,,,,,,,,337.3906,339.9387,6.6,2.5474,0,6,6,6,1,1,7,AS,5A,The professor cried about the article.
,,117220,080,1,2024-03-06_22h25.11.254,Memory and Syntax,2023.2.3,Win32,144.9275362,,,,,,,,,,,,,,,,,,,,,,,,,,,,,,,,,,,,,,,,,,339.9388,342.3045,6.6,2.3646,0,7,7,7,1,1,8,WO,5A,My sibling expected a good grade.
,,117220,080,1,2024-03-06_22h25.11.254,Memory and Syntax,2023.2.3,Win32,144.9275362,,,,,,,,,,,,,,,,,,,,,,,,,,,,,,,,,,,,,,,,,,342.3047,345.2754,3.8,2.9702,0,8,8,8,1,1,9,filler,1A,There has been a man considered violent.
,,117220,080,1,2024-03-06_22h25.11.254,Memory and Syntax,2023.2.3,Win32,144.9275362,,,,,,,,,,,,,,,,,,,,,,,,,,,,,,,,,,,,,,,,,,345.2755,347.7209,6.5,2.4447,0,9,9,9,1,1,10,AS,2A,Taylor subscribed to the channel.
,,117220,080,1,2024-03-06_22h25.11.254,Memory and Syntax,2023.2.3,Win32,144.9275362,,,,,,,,,,,,,,,,,,,,,,,,,,,,,,,,,,,,,,,,,,347.721,349.7229,6.5,0.0994,0,10,10,10,1,1,11,control,10B,There might fossils seem to be several miles underground.
,,117220,080,1,2024-03-06_22h25.11.254,Memory and Syntax,2023.2.3,Win32,144.9275362,,,,,,,,,,,,,,,,,,,,,,,,,,,,,,,,,,,,,,,,,,349.7231,352.9902,4.9,3.2653,0,11,11,11,1,1,12,ASV,8B,Esperanza sighed herself at the desk.
,,117220,080,1,2024-03-06_22h25.11.254,Memory and Syntax,2023.2.3,Win32,144.9275362,,,,,,,,,,,,,,,,,,,,,,,,,,,,,,,,,,,,,,,,,,352.9904,355.3927,3,2.4018,0,12,12,12,1,1,13,WOV,9B,Read we five pages each night.
,,117220,080,1,2024-03-06_22h25.11.254,Memory and Syntax,2023.2.3,Win32,144.9275362,,,,,,,,,,,,,,,,,,,,,,,,,,,,,,,,,,,,,,,,,,355.3928,357.892,2.8,2.4987,0,13,13,13,1,1,14,WOV,7B,Frightened the eerie sound Seth.
,,117220,080,1,2024-03-06_22h25.11.254,Memory and Syntax,2023.2.3,Win32,144.9275362,,,,,,,,,,,,,,,,,,,,,,,,,,,,,,,,,,,,,,,,,,357.8921,360.4058,5.5,2.513,0,14,14,14,1,1,15,filler,2A,"Arty is sick, and Mark is too."
,,117220,080,1,2024-03-06_22h25.11.254,Memory and Syntax,2023.2.3,Win32,144.9275362,,,,,,,,,,,,,,,,,,,,,,,,,,,,,,,,,,,,,,,,,,360.4059,362.9548,5.8,2.5482,0,15,15,15,1,1,16,ASV,9B,The prime minister confessed herself to bribery.
,,117220,080,1,2024-03-06_22h25.11.254,Memory and Syntax,2023.2.3,Win32,144.9275362,,,,,,,,,,,,,,,,,,,,,,,,,,,,,,,,,,,,,,,,,,362.9548,365.4877,5.2,2.5321,0,16,16,16,1,1,17,control,7B,Olivia told Gregory when to exonerate herself.
,,117220,080,1,2024-03-06_22h25.11.254,Memory and Syntax,2023.2.3,Win32,144.9275362,,,,,,,,,,,,,,,,,,,,,,,,,,,,,,,,,,,,,,,,,,365.4878,367.9876,6.9,2.4991,0,17,17,17,1,1,18,control,11B,There are likely students to be in the library.
,,117220,080,1,2024-03-06_22h25.11.254,Memory and Syntax,2023.2.3,Win32,144.9275362,,,,,,,,,,,,,,,,,,,,,,,,,,,,,,,,,,,,,,,,,,367.9877,370.2874,6.6,2.2993,0,18,18,18,1,1,19,filler,5A,I told Mandy who would win the election.
,,117220,080,1,2024-03-06_22h25.11.254,Memory and Syntax,2023.2.3,Win32,144.9275362,,,,,,,,,,,,,,,,,,,,,,,,,,,,,,,,,,,,,,,,,,370.2875,372.821,5.5,2.5329,0,19,19,19,1,1,20,control,9B,We consider there three problems.
,,117220,080,1,2024-03-06_22h25.11.254,Memory and Syntax,2023.2.3,Win32,144.9275362,,,,,,,,,,,,,,,,,,,,,,,,,,,,,,,,,,,,,,,,,,372.821,375.6581,3.6,2.8364,0,20,20,20,1,1,21,control,8B,She called Victor and yelled at.
,,117220,080,1,2024-03-06_22h25.11.254,Memory and Syntax,2023.2.3,Win32,144.9275362,,,,,,,,,,,,,,,,,,,,,,,,,,,,,,,,,,,,,,,,,,375.6581,378.0754,6.2,2.4166,0,21,21,21,1,1,22,WO,4A,The bully pushed every student.
,,117220,080,1,2024-03-06_22h25.11.254,Memory and Syntax,2023.2.3,Win32,144.9275362,,,,,,,,,,,,,,,,,,,,,,,,,,,,,,,,,,,,,,,,,,378.0755,380.4888,6.2,2.4125,0,22,22,22,1,1,23,WO,3A,Miguel baked delicious cupcakes.
,,117220,080,1,2024-03-06_22h25.11.254,Memory and Syntax,2023.2.3,Win32,144.9275362,,,,,,,,,,,,,,,,,,,,,,,,,,,,,,,,,,,,,,,,,,380.4889,383.0543,6.9,2.5647,0,23,23,23,1,1,24,WO,1A,Abby answered the question.
,,117220,080,1,2024-03-06_22h25.11.254,Memory and Syntax,2023.2.3,Win32,144.9275362,,,,,,,,,,,,,,,,,,,,,,,,,,,,,,,,,,,,,,,,,,383.0544,385.5215,6.9,2.4664,0,24,24,24,1,1,25,filler,3A,Brittany attempted to touch the porcupine.
,,117220,080,1,2024-03-06_22h25.11.254,Memory and Syntax,2023.2.3,Win32,144.9275362,,,,,,,,,,,,,,,,,,,,,,,,,,,,,,,,,,,,,,,,,,385.5216,387.9209,6.9,2.3987,0,25,25,25,1,1,26,AS,3A,Gracie stayed by the window.
,,117220,080,1,2024-03-06_22h25.11.254,Memory and Syntax,2023.2.3,Win32,144.9275362,,,,,,,,,,,,,,,,,,,,,,,,,,,,,,,,,,,,,,,,,,387.9209,390.4378,2.6,2.5163,0,26,26,26,1,1,27,WOV,11B,Wrote she her boyfriend a poem.
,,117220,080,1,2024-03-06_22h25.11.254,Memory and Syntax,2023.2.3,Win32,144.9275362,,,,,,,,,,,,,,,,,,,,,,,,,,,,,,,,,,,,,,,,,,390.438,392.8875,2.4,2.4489,0,27,27,27,1,1,28,WOV,12B,Watched Lily a movie.
,,117220,080,1,2024-03-06_22h25.11.254,Memory and Syntax,2023.2.3,Win32,144.9275362,,,,,,,,,,,,,,,,,,,,,,,,,,,,,,,,,,,,,,,,,,392.8876,396.1054,6.9,3.2171,0,28,28,28,1,1,29,WO,2A,Jackie won the close race.
,,117220,080,1,2024-03-06_22h25.11.254,Memory and Syntax,2023.2.3,Win32,144.9275362,,,,,,,,,,,,,,,,,,,,,,,,,,,,,,,,,,,,,,,,,,396.1054,398.6044,6.8,2.4984,0,29,29,29,1,1,30,AS,4A,Tomas drank from the water pitcher.
,,117220,080,1,2024-03-06_22h25.11.254,Memory and Syntax,2023.2.3,Win32,144.9275362,,,,,,,,,,,,,,,,,,,,,,,,,,,,,,,,,,,,,,,,,,398.6045,401.1383,2,2.5332,0,30,30,30,1,1,31,WOV,10B,Kissed Kareem his boyfriend.
,,117220,080,1,2024-03-06_22h25.11.254,Memory and Syntax,2023.2.3,Win32,144.9275362,,,,,,,,,,,,,,,,,,,,,,,,,,,,,,,,,,,,,,,,,,401.1385,403.771,2.6,2.6321,0,31,31,31,1,1,32,ASV,10B,The children quieted themselves.
,,117220,080,1,2024-03-06_22h25.11.254,Memory and Syntax,2023.2.3,Win32,144.9275362,,,,,,,,,,,,,,,,,,,,,,,,,,,,,,,,,,,,,,,,,,403.7711,406.354,5.2,2.5821,0,32,32,32,1,1,33,AS,1A,They fidgeted in their chairs.
,,117220,080,1,2024-03-06_22h25.11.254,Memory and Syntax,2023.2.3,Win32,144.9275362,,,,,,,,,,,,,,,,,,,,,,,,,,,,,,,,,,,,,,,,,,406.3541,409.0233,5.7,2.6686,0,33,33,33,1,1,34,filler,4A,It seems to him that Kim solved the problem.
,,117220,080,1,2024-03-06_22h25.11.254,Memory and Syntax,2023.2.3,Win32,144.9275362,,,,,,,,,,,,,,,,,,,,,,,,,,,,,,,,,,,,,,,,,,409.0234,411.4375,5.7,2.4137,0,34,34,34,1,1,35,ASV,12B,The swimmers shaved themselves.