load.started,load.stopped,Sona ID,Participant ID,Session,date,expName,psychopyVersion,OS,frameRate,cvmtInstr.started,cvmtInstr.stopped,cvmtTaskInstr.started,cvmtTaskInstr.stopped,presentDesign.started,presentDesign.stopped,cvmt_key_resp.keys,cvmt_key_resp.corr,cvmt_key_resp.rt,cvmt_key_resp.duration,cvmtNoResp.started,cvmtNoResp.stopped,cvmt_key_resp2.keys,cvmt_key_resp2.corr,cvmtSampleFB.started,cvmtSampleFB.stopped,key_resp_15.keys,cvmtSampleFBFinal.started,cvmtSampleFBFinal.stopped,cvmt_final_samp_fb_key_resp.keys,cvmtTrials.thisRepN,cvmtTrials.thisTrialN,cvmtTrials.thisN,cvmtTrials.thisIndex,cvmtTrials.ran,cvmt_design,old_or_new,cvmtDelay.started,cvmtDelay.stopped,cvmt timer,engAJT_instr.started,engAJT_instr.stopped,start_ajt.keys,start_ajt.rt,start_ajt.duration,engAJT.started,engAJT.stopped,acceptability.response,acceptability.rt,engAJT_trials.thisRepN,engAJT_trials.thisTrialN,engAJT_trials.thisN,engAJT_trials.thisIndex,engAJT_trials.ran,ajt_list,list_position,condition,item,testSent
0.0009,0.5409,117393,109,1,2024-03-07_22h02.38.314,Memory and Syntax,2023.2.3,MacIntel,60.24096386,,,,,,,,,,,,,,,,,,,,,,,,,,,,,,,,,,,,,,,,,,,,,,,,,
,,117393,109,1,2024-03-07_22h02.38.314,Memory and Syntax,2023.2.3,MacIntel,60.24096386,0.5543,1.8093,1.8182,2.3068,2.342,4.3252,n,1,0.9529,,4.3266,4.3305,,0,4.3311,4.3336,,4.3342,4.336,,0,0,0,0,1,cvmt/sample/s1.jpg,n,,,,,,,,,,,,,,,,,,,,,,
,,117393,109,1,2024-03-07_22h02.38.314,Memory and Syntax,2023.2.3,MacIntel,60.24096386,,,,,4.3381,6.3411,n,1,0.5061,,6.3423,6.3439,,0,6.3445,6.346,,6.3466,6.3477,,0,1,1,1,1,cvmt/sample/s2.jpg,n,,,,,,,,,,,,,,,,,,,,,,
,,117393,109,1,2024-03-07_22h02.38.314,Memory and Syntax,2023.2.3,MacIntel,60.24096386,,,,,6.3499,8.341,o,1,0.2927,,8.3422,8.3437,,0,8.3444,8.3461,,8.3466,8.3478,,0,2,2,2,1,cvmt/sample/s3.jpg,o,,,,,,,,,,,,,,,,,,,,,,
,,117393,109,1,2024-03-07_22h02.38.314,Memory and Syntax,2023.2.3,MacIntel,60.24096386,,,,,8.3496,10.3402,n,1,0.7611,,10.3409,10.3424,,0,10.3431,10.3449,,10.3454,10.3466,,0,3,3,3,1,cvmt/sample/s4.jpg,n,,,,,,,,,,,,,,,,,,,,,,
,,117393,109,1,2024-03-07_22h02.38.314,Memory and Syntax,2023.2.3,MacIntel,60.24096386,,,,,10.3488,12.3409,n,1,0.9013,,12.342,12.3434,,0,12.344,12.3457,,12.3463,12.3477,,0,4,4,4,1,cvmt/sample/s5.jpg,n,,,,,,,,,,,,,,,,,,,,,,
,,117393,109,1,2024-03-07_22h02.38.314,Memory and Syntax,2023.2.3,MacIntel,60.24096386,,,,,12.3496,14.3542,n,1,0.9348,,14.3547,14.3557,,0,14.3561,14.357,,14.3573,14.3581,,0,5,5,5,1,cvmt/sample/s6.jpg,n,,,,,,,,,,,,,,,,,,,,,,
,,117393,109,1,2024-03-07_22h02.38.314,Memory and Syntax,2023.2.3,MacIntel,60.24096386,,,,,14.3593,16.357,o,1,0.3098,,16.3578,16.3593,,0,16.36,16.3616,,16.3622,16.3635,,0,6,6,6,1,cvmt/sample/s7.jpg,o,,,,,,,,,,,,,,,,,,,,,,
,,117393,109,1,2024-03-07_22h02.38.314,Memory and Syntax,2023.2.3,MacIntel,60.24096386,,,,,16.3655,18.357,n,1,0.9119,,18.3576,18.3589,,0,18.3594,18.3609,,18.3615,18.3624,,0,7,7,7,1,cvmt/sample/s8.jpg,n,,,,,,,,,,,,,,,,,,,,,,
,,117393,109,1,2024-03-07_22h02.38.314,Memory and Syntax,2023.2.3,MacIntel,60.24096386,,,,,18.3641,20.3577,n,1,1.1405,,20.3584,20.3601,,0,20.3607,20.3625,,20.3631,20.3644,,0,8,8,8,1,cvmt/sample/s9.jpg,n,,,,,,,,,,,,,,,,,,,,,,
,,117393,109,1,2024-03-07_22h02.38.314,Memory and Syntax,2023.2.3,MacIntel,60.24096386,,,,,20.3665,22.3576,n,1,0.4687,,22.3584,22.3598,,0,22.3605,22.3621,,22.3627,22.364,,0,9,9,9,1,cvmt/sample/s10.jpg,n,,,,,,,,,,,,,,,,,,,,,,
,,117393,109,1,2024-03-07_22h02.38.314,Memory and Syntax,2023.2.3,MacIntel,60.24096386,,,,,22.3661,24.3576,o,1,0.9504,,24.3589,24.3607,,0,24.3613,24.3632,,24.3638,24.3659,,0,10,10,10,1,cvmt/sample/s11.jpg,o,,,,,,,,,,,,,,,,,,,,,,
,,117393,109,1,2024-03-07_22h02.38.314,Memory and Syntax,2023.2.3,MacIntel,60.24096386,,,24.3671,25.1398,25.1533,27.1566,n,1,1.0837,,27.1567,27.1569,,0,27.1569,27.1575,,27.1575,27.1577,,0,0,0,0,1,cvmt/test_items/t1.jpeg,n,,,,,,,,,,,,,,,,,,,,,,
,,117393,109,1,2024-03-07_22h02.38.314,Memory and Syntax,2023.2.3,MacIntel,60.24096386,,,,,27.1581,29.1565,o,0,0.3717,,29.1565,29.1568,,0,29.1569,29.1575,,29.1576,29.1576,,0,1,1,1,1,cvmt/test_items/t2.jpeg,n,,,,,,,,,,,,,,,,,,,,,,
,,117393,109,1,2024-03-07_22h02.38.314,Memory and Syntax,2023.2.3,MacIntel,60.24096386,,,,,29.158,31.1564,n,0,0.4405,,31.1565,31.1567,,0,31.1567,31.1573,,31.1574,31.1574,,0,2,2,2,1,cvmt/test_items/t3.jpeg,o,,,,,,,,,,,,,,,,,,,,,,
,,117393,109,1,2024-03-07_22h02.38.314,Memory and Syntax,2023.2.3,MacIntel,60.24096386,,,,,31.1577,33.1564,o,1,0.6452,,33.1566,33.1568,,0,33.1568,33.1573,,33.1573,33.1574,,0,3,3,3,1,cvmt/test_items/t4.jpeg,o,,,,,,,,,,,,,,,,,,,,,,
,,117393,109,1,2024-03-07_22h02.38.314,Memory and Syntax,2023.2.3,MacIntel,60.24096386,,,,,33.1577,35.1556,n,0,0.435,,35.1557,35.1559,,0,35.156,35.1564,,35.1564,35.1564,,0,4,4,4,1,cvmt/test_items/t5.jpeg,o,,,,,,,,,,,,,,,,,,,,,,
,,117393,109,1,2024-03-07_22h02.38.314,Memory and Syntax,2023.2.3,MacIntel,60.24096386,,,,,35.1567,37.1566,o,1,0.6601,,37.1567,37.1569,,0,37.157,37.1578,,37.1578,37.158,,0,5,5,5,1,cvmt/test_items/t6.jpeg,o,,,,,,,,,,,,,,,,,,,,,,
,,117393,109,1,2024-03-07_22h02.38.314,Memory and Syntax,2023.2.3,MacIntel,60.24096386,,,,,37.1584,39.1564,n,0,0.9197,,39.1566,39.1568,,0,39.1568,39.1574,,39.1574,39.1575,,0,6,6,6,1,cvmt/test_items/t7.jpeg,o,,,,,,,,,,,,,,,,,,,,,,
,,117393,109,1,2024-03-07_22h02.38.314,Memory and Syntax,2023.2.3,MacIntel,60.24096386,,,,,39.1578,41.1565,o,1,0.7635,,41.1565,41.1567,,0,41.1568,41.1574,,41.1574,41.1575,,0,7,7,7,1,cvmt/test_items/t8.jpeg,o,,,,,,,,,,,,,,,,,,,,,,
,,117393,109,1,2024-03-07_22h02.38.314,Memory and Syntax,2023.2.3,MacIntel,60.24096386,,,,,41.1578,43.1564,n,0,1.1589,,43.1564,43.1566,,0,43.1566,43.157,,43.157,43.1572,,0,8,8,8,1,cvmt/test_items/t9.jpeg,o,,,,,,,,,,,,,,,,,,,,,,
,,117393,109,1,2024-03-07_22h02.38.314,Memory and Syntax,2023.2.3,MacIntel,60.24096386,,,,,43.1574,45.1564,o,1,0.7489,,45.1564,45.1566,,0,45.1566,45.157,,45.157,45.157,,0,9,9,9,1,cvmt/test_items/t10.jpeg,o,,,,,,,,,,,,,,,,,,,,,,
,,117393,109,1,2024-03-07_22h02.38.314,Memory and Syntax,2023.2.3,MacIntel,60.24096386,,,,,45.1573,47.1566,o,0,0.7271,,47.1566,47.1569,,0,47.157,47.1576,,47.1576,47.1576,,0,10,10,10,1,cvmt/test_items/t11.jpeg,n,,,,,,,,,,,,,,,,,,,,,,
,,117393,109,1,2024-03-07_22h02.38.314,Memory and Syntax,2023.2.3,MacIntel,60.24096386,,,,,47.1579,49.1562,n,0,0.6916,,49.1563,49.1564,,0,49.1565,49.157,,49.157,49.1571,,0,11,11,11,1,cvmt/test_items/t12.jpeg,o,,,,,,,,,,,,,,,,,,,,,,
,,117393,109,1,2024-03-07_22h02.38.314,Memory and Syntax,2023.2.3,MacIntel,60.24096386,,,,,49.1574,51.1563,o,1,0.5719,,51.1563,51.1566,,0,51.1567,51.1571,,51.1571,51.1571,,0,12,12,12,1,cvmt/test_items/t13.jpeg,o,,,,,,,,,,,,,,,,,,,,,,
,,117393,109,1,2024-03-07_22h02.38.314,Memory and Syntax,2023.2.3,MacIntel,60.24096386,,,,,51.1573,53.1565,o,1,0.7062,,53.1566,53.1567,,0,53.1568,53.1572,,53.1572,53.1572,,0,13,13,13,1,cvmt/test_items/t14.jpeg,o,,,,,,,,,,,,,,,,,,,,,,
,,117393,109,1,2024-03-07_22h02.38.314,Memory and Syntax,2023.2.3,MacIntel,60.24096386,,,,,53.1575,55.1559,o,1,0.8948,,55.1559,55.156,,0,55.156,55.1561,,55.1561,55.1562,,0,14,14,14,1,cvmt/test_items/t15.jpeg,o,,,,,,,,,,,,,,,,,,,,,,
,,117393,109,1,2024-03-07_22h02.38.314,Memory and Syntax,2023.2.3,MacIntel,60.24096386,,,,,55.1562,57.1565,n,0,0.7435,,57.1565,57.1567,,0,57.1567,57.1573,,57.1573,57.1575,,0,15,15,15,1,cvmt/test_items/t16.jpeg,o,,,,,,,,,,,,,,,,,,,,,,
,,117393,109,1,2024-03-07_22h02.38.314,Memory and Syntax,2023.2.3,MacIntel,60.24096386,,,,,57.1578,59.1563,n,0,0.7935,,59.1564,59.1565,,0,59.1566,59.1569,,59.1569,59.157,,0,16,16,16,1,cvmt/test_items/t17.jpeg,o,,,,,,,,,,,,,,,,,,,,,,
,,117393,109,1,2024-03-07_22h02.38.314,Memory and Syntax,2023.2.3,MacIntel,60.24096386,,,,,59.1572,61.1565,o,1,0.7127,,61.1565,61.1568,,0,61.1568,61.1573,,61.1573,61.1574,,0,17,17,17,1,cvmt/test_items/t18.jpeg,o,,,,,,,,,,,,,,,,,,,,,,
,,117393,109,1,2024-03-07_22h02.38.314,Memory and Syntax,2023.2.3,MacIntel,60.24096386,,,,,61.1578,63.1563,n,1,0.6599,,63.1565,63.1567,,0,63.1567,63.1574,,63.1574,63.1575,,0,18,18,18,1,cvmt/test_items/t19.jpeg,n,,,,,,,,,,,,,,,,,,,,,,
,,117393,109,1,2024-03-07_22h02.38.314,Memory and Syntax,2023.2.3,MacIntel,60.24096386,,,,,63.158,65.1565,o,1,0.5664,,65.1566,65.1568,,0,65.1568,65.1574,,65.1574,65.1574,,0,19,19,19,1,cvmt/test_items/t20.jpeg,o,,,,,,,,,,,,,,,,,,,,,,
,,117393,109,1,2024-03-07_22h02.38.314,Memory and Syntax,2023.2.3,MacIntel,60.24096386,,,,,65.1578,67.1565,o,1,0.7423,,67.1565,67.1567,,0,67.1569,67.1574,,67.1574,67.1576,,0,20,20,20,1,cvmt/test_items/t21.jpeg,o,,,,,,,,,,,,,,,,,,,,,,
,,117393,109,1,2024-03-07_22h02.38.314,Memory and Syntax,2023.2.3,MacIntel,60.24096386,,,,,67.1578,69.1564,n,0,0.5459,,69.1564,69.1567,,0,69.1567,69.1573,,69.1574,69.1575,,0,21,21,21,1,cvmt/test_items/t22.jpeg,o,,,,,,,,,,,,,,,,,,,,,,
,,117393,109,1,2024-03-07_22h02.38.314,Memory and Syntax,2023.2.3,MacIntel,60.24096386,,,,,69.1578,71.1566,o,0,0.6518,,71.1566,71.157,,0,71.157,71.1575,,71.1575,71.1576,,0,22,22,22,1,cvmt/test_items/t23.jpeg,n,,,,,,,,,,,,,,,,,,,,,,
,,117393,109,1,2024-03-07_22h02.38.314,Memory and Syntax,2023.2.3,MacIntel,60.24096386,,,,,71.1579,73.1563,o,0,0.6035,,73.1564,73.1566,,0,73.1566,73.1571,,73.1571,73.1572,,0,23,23,23,1,cvmt/test_items/t24.jpeg,n,,,,,,,,,,,,,,,,,,,,,,
,,117393,109,1,2024-03-07_22h02.38.314,Memory and Syntax,2023.2.3,MacIntel,60.24096386,,,,,73.1576,75.1564,n,0,0.5225,,75.1565,75.1567,,0,75.1567,75.1572,,75.1572,75.1572,,0,24,24,24,1,cvmt/test_items/t25.jpeg,o,,,,,,,,,,,,,,,,,,,,,,
,,117393,109,1,2024-03-07_22h02.38.314,Memory and Syntax,2023.2.3,MacIntel,60.24096386,,,,,75.1574,77.1565,o,0,1.077,,77.1566,77.1568,,0,77.1568,77.1574,,77.1574,77.1575,,0,25,25,25,1,cvmt/test_items/t26.jpeg,n,,,,,,,,,,,,,,,,,,,,,,
,,117393,109,1,2024-03-07_22h02.38.314,Memory and Syntax,2023.2.3,MacIntel,60.24096386,,,,,77.1579,79.1563,o,1,0.6303,,79.1563,79.1566,,0,79.1566,79.1572,,79.1572,79.1573,,0,26,26,26,1,cvmt/test_items/t27.jpeg,o,,,,,,,,,,,,,,,,,,,,,,
,,117393,109,1,2024-03-07_22h02.38.314,Memory and Syntax,2023.2.3,MacIntel,60.24096386,,,,,79.1577,81.1565,n,1,0.7339,,81.1565,81.1567,,0,81.1568,81.1573,,81.1574,81.1575,,0,27,27,27,1,cvmt/test_items/t28.jpeg,n,,,,,,,,,,,,,,,,,,,,,,
,,117393,109,1,2024-03-07_22h02.38.314,Memory and Syntax,2023.2.3,MacIntel,60.24096386,,,,,81.1579,83.1564,n,1,0.7615,,83.1564,83.1567,,0,83.1568,83.1574,,83.1574,83.1575,,0,28,28,28,1,cvmt/test_items/t29.jpeg,n,,,,,,,,,,,,,,,,,,,,,,
,,117393,109,1,2024-03-07_22h02.38.314,Memory and Syntax,2023.2.3,MacIntel,60.24096386,,,,,83.1578,85.1564,o,1,0.9793,,85.1564,85.1566,,0,85.1567,85.1573,,85.1573,85.1573,,0,29,29,29,1,cvmt/test_items/t30.jpeg,o,,,,,,,,,,,,,,,,,,,,,,
,,117393,109,1,2024-03-07_22h02.38.314,Memory and Syntax,2023.2.3,MacIntel,60.24096386,,,,,85.1577,87.1564,o,1,0.5659,,87.1565,87.1567,,0,87.1567,87.1572,,87.1572,87.1574,,0,30,30,30,1,cvmt/test_items/t31.jpeg,o,,,,,,,,,,,,,,,,,,,,,,
,,117393,109,1,2024-03-07_22h02.38.314,Memory and Syntax,2023.2.3,MacIntel,60.24096386,,,,,87.1578,89.1564,n,1,0.8454,,89.1565,89.1566,,0,89.1567,89.1574,,89.1574,89.1575,,0,31,31,31,1,cvmt/test_items/t32.jpeg,n,,,,,,,,,,,,,,,,,,,,,,
,,117393,109,1,2024-03-07_22h02.38.314,Memory and Syntax,2023.2.3,MacIntel,60.24096386,,,,,89.1579,91.1563,n,1,1.0044,,91.1565,91.1567,,0,91.1567,91.1573,,91.1573,91.1574,,0,32,32,32,1,cvmt/test_items/t33.jpeg,n,,,,,,,,,,,,,,,,,,,,,,
,,117393,109,1,2024-03-07_22h02.38.314,Memory and Syntax,2023.2.3,MacIntel,60.24096386,,,,,91.1578,93.1563,o,1,0.8122,,93.1565,93.1567,,0,93.1567,93.1571,,93.1572,93.1573,,0,33,33,33,1,cvmt/test_items/t34.jpeg,o,,,,,,,,,,,,,,,,,,,,,,
,,117393,109,1,2024-03-07_22h02.38.314,Memory and Syntax,2023.2.3,MacIntel,60.24096386,,,,,93.1576,95.1564,n,1,0.767,,95.1564,95.1566,,0,95.1566,95.1572,,95.1572,95.1573,,0,34,34,34,1,cvmt/test_items/t35.jpeg,n,,,,,,,,,,,,,,,,,,,,,,
,,117393,109,1,2024-03-07_22h02.38.314,Memory and Syntax,2023.2.3,MacIntel,60.24096386,,,,,95.1576,97.1562,o,1,0.7138,,97.1564,97.1566,,0,97.1566,97.1571,,97.1571,97.1571,,0,35,35,35,1,cvmt/test_items/t36.jpeg,o,,,,,,,,,,,,,,,,,,,,,,
,,117393,109,1,2024-03-07_22h02.38.314,Memory and Syntax,2023.2.3,MacIntel,60.24096386,,,,,97.1574,99.1563,n,1,0.9602,,99.1564,99.1566,,0,99.1567,99.1571,,99.1572,99.1573,,0,36,36,36,1,cvmt/test_items/t37.jpeg,n,,,,,,,,,,,,,,,,,,,,,,
,,117393,109,1,2024-03-07_22h02.38.314,Memory and Syntax,2023.2.3,MacIntel,60.24096386,,,,,99.1576,101.1563,o,1,0.8922,,101.1564,101.1565,,0,101.1566,101.1569,,101.1569,101.157,,0,37,37,37,1,cvmt/test_items/t38.jpeg,o,,,,,,,,,,,,,,,,,,,,,,
,,117393,109,1,2024-03-07_22h02.38.314,Memory and Syntax,2023.2.3,MacIntel,60.24096386,,,,,101.1572,103.1563,n,1,0.6549,,103.1564,103.1566,,0,103.1566,103.1571,,103.1572,103.1573,,0,38,38,38,1,cvmt/test_items/t39.jpeg,n,,,,,,,,,,,,,,,,,,,,,,
,,117393,109,1,2024-03-07_22h02.38.314,Memory and Syntax,2023.2.3,MacIntel,60.24096386,,,,,103.1576,105.1561,o,1,0.5679,,105.1561,105.1563,,0,105.1564,105.1567,,105.1568,105.1568,,0,39,39,39,1,cvmt/test_items/t40.jpeg,o,,,,,,,,,,,,,,,,,,,,,,
,,117393,109,1,2024-03-07_22h02.38.314,Memory and Syntax,2023.2.3,MacIntel,60.24096386,,,,,105.157,107.1564,n,1,0.6986,,107.1565,107.1567,,0,107.1568,107.1573,,107.1574,107.1574,,0,40,40,40,1,cvmt/test_items/t41.jpeg,n,,,,,,,,,,,,,,,,,,,,,,
,,117393,109,1,2024-03-07_22h02.38.314,Memory and Syntax,2023.2.3,MacIntel,60.24096386,,,,,107.1578,109.1564,n,0,0.6058,,109.1565,109.1567,,0,109.1568,109.1571,,109.1572,109.1572,,0,41,41,41,1,cvmt/test_items/t42.jpeg,o,,,,,,,,,,,,,,,,,,,,,,
,,117393,109,1,2024-03-07_22h02.38.314,Memory and Syntax,2023.2.3,MacIntel,60.24096386,,,,,109.1574,111.1559,o,1,0.779,,111.156,111.1561,,0,111.1561,111.1563,,111.1564,111.1564,,0,42,42,42,1,cvmt/test_items/t43.jpeg,o,,,,,,,,,,,,,,,,,,,,,,
,,117393,109,1,2024-03-07_22h02.38.314,Memory and Syntax,2023.2.3,MacIntel,60.24096386,,,,,111.1564,113.1562,n,1,0.8212,,113.1562,113.1564,,0,113.1565,113.1568,,113.1569,113.157,,0,43,43,43,1,cvmt/test_items/t44.jpeg,n,,,,,,,,,,,,,,,,,,,,,,
,,117393,109,1,2024-03-07_22h02.38.314,Memory and Syntax,2023.2.3,MacIntel,60.24096386,,,,,113.1571,115.1564,n,0,0.4995,,115.1565,115.1568,,0,115.1568,115.1573,,115.1574,115.1574,,0,44,44,44,1,cvmt/test_items/t45.jpeg,o,,,,,,,,,,,,,,,,,,,,,,
,,117393,109,1,2024-03-07_22h02.38.314,Memory and Syntax,2023.2.3,MacIntel,60.24096386,,,,,115.1579,117.1634,n,0,0.3623,,117.1635,117.1637,,0,117.1637,117.1641,,117.1641,117.1642,,0,45,45,45,1,cvmt/test_items/t46.jpeg,o,,,,,,,,,,,,,,,,,,,,,,
,,117393,109,1,2024-03-07_22h02.38.314,Memory and Syntax,2023.2.3,MacIntel,60.24096386,,,,,117.1645,119.1563,n,0,1.7196,,119.1564,119.1566,,0,119.1566,119.1571,,119.1571,119.1572,,0,46,46,46,1,cvmt/test_items/t47.jpeg,o,,,,,,,,,,,,,,,,,,,,,,
,,117393,109,1,2024-03-07_22h02.38.314,Memory and Syntax,2023.2.3,MacIntel,60.24096386,,,,,119.1576,121.1563,n,1,1.148,,121.1564,121.1566,,0,121.1566,121.1572,,121.1572,121.1573,,0,47,47,47,1,cvmt/test_items/t48.jpeg,n,,,,,,,,,,,,,,,,,,,,,,
,,117393,109,1,2024-03-07_22h02.38.314,Memory and Syntax,2023.2.3,MacIntel,60.24096386,,,,,121.1578,123.1563,o,1,0.6412,,123.1563,123.1566,,0,123.1567,123.1571,,123.1573,123.1574,,0,48,48,48,1,cvmt/test_items/t49.jpeg,o,,,,,,,,,,,,,,,,,,,,,,
,,117393,109,1,2024-03-07_22h02.38.314,Memory and Syntax,2023.2.3,MacIntel,60.24096386,,,,,123.1577,125.1562,n,0,0.7294,,125.1563,125.1565,,0,125.1566,125.1571,,125.1572,125.1572,,0,49,49,49,1,cvmt/test_items/t50.jpeg,o,,,,,,,,,,,,,,,,,,,,,,
,,117393,109,1,2024-03-07_22h02.38.314,Memory and Syntax,2023.2.3,MacIntel,60.24096386,,,,,125.1575,127.1562,n,1,0.6473,,127.1563,127.1565,,0,127.1565,127.1569,,127.1569,127.1569,,0,50,50,50,1,cvmt/test_items/t51.jpeg,n,,,,,,,,,,,,,,,,,,,,,,
,,117393,109,1,2024-03-07_22h02.38.314,Memory and Syntax,2023.2.3,MacIntel,60.24096386,,,,,127.1572,129.1563,o,1,0.9144,,129.1564,129.1566,,0,129.1567,129.1572,,129.1572,129.1573,,0,51,51,51,1,cvmt/test_items/t52.jpeg,o,,,,,,,,,,,,,,,,,,,,,,
,,117393,109,1,2024-03-07_22h02.38.314,Memory and Syntax,2023.2.3,MacIntel,60.24096386,,,,,129.1576,131.1563,o,1,1.0477,,131.1563,131.1566,,0,131.1567,131.1571,,131.1571,131.1572,,0,52,52,52,1,cvmt/test_items/t53.jpeg,o,,,,,,,,,,,,,,,,,,,,,,
,,117393,109,1,2024-03-07_22h02.38.314,Memory and Syntax,2023.2.3,MacIntel,60.24096386,,,,,131.1575,133.1562,o,1,1.0241,,133.1564,133.1566,,0,133.1566,133.1571,,133.1572,133.1573,,0,53,53,53,1,cvmt/test_items/t54.jpeg,o,,,,,,,,,,,,,,,,,,,,,,
,,117393,109,1,2024-03-07_22h02.38.314,Memory and Syntax,2023.2.3,MacIntel,60.24096386,,,,,133.1576,135.1562,o,1,0.7256,,135.1562,135.1564,,0,135.1565,135.1569,,135.1569,135.1569,,0,54,54,54,1,cvmt/test_items/t55.jpeg,o,,,,,,,,,,,,,,,,,,,,,,
,,117393,109,1,2024-03-07_22h02.38.314,Memory and Syntax,2023.2.3,MacIntel,60.24096386,,,,,135.1571,137.1563,n,0,0.85,,137.1564,137.1566,,0,137.1566,137.1572,,137.1572,137.1573,,0,55,55,55,1,cvmt/test_items/t56.jpeg,o,,,,,,,,,,,,,,,,,,,,,,
,,117393,109,1,2024-03-07_22h02.38.314,Memory and Syntax,2023.2.3,MacIntel,60.24096386,,,,,137.1576,139.1563,o,1,0.6488,,139.1564,139.1566,,0,139.1566,139.1573,,139.1573,139.1574,,0,56,56,56,1,cvmt/test_items/t57.jpeg,o,,,,,,,,,,,,,,,,,,,,,,
,,117393,109,1,2024-03-07_22h02.38.314,Memory and Syntax,2023.2.3,MacIntel,60.24096386,,,,,139.1578,141.1563,n,1,0.8628,,141.1564,141.1566,,0,141.1567,141.1572,,141.1572,141.1573,,0,57,57,57,1,cvmt/test_items/t58.jpeg,n,,,,,,,,,,,,,,,,,,,,,,
,,117393,109,1,2024-03-07_22h02.38.314,Memory and Syntax,2023.2.3,MacIntel,60.24096386,,,,,141.1576,143.1563,n,1,1.0474,,143.1563,143.1566,,0,143.1567,143.1571,,143.1572,143.1572,,0,58,58,58,1,cvmt/test_items/t59.jpeg,n,,,,,,,,,,,,,,,,,,,,,,
,,117393,109,1,2024-03-07_22h02.38.314,Memory and Syntax,2023.2.3,MacIntel,60.24096386,,,,,143.1576,145.1562,o,1,0.6829,,145.1563,145.1566,,0,145.1567,145.1572,,145.1572,145.1573,,0,59,59,59,1,cvmt/test_items/t60.jpeg,o,,,,,,,,,,,,,,,,,,,,,,
,,117393,109,1,2024-03-07_22h02.38.314,Memory and Syntax,2023.2.3,MacIntel,60.24096386,,,,,145.1576,147.1563,n,0,0.5919,,147.1564,147.1567,,0,147.1567,147.1572,,147.1572,147.1573,,0,60,60,60,1,cvmt/test_items/t61.jpeg,o,,,,,,,,,,,,,,,,,,,,,,
,,117393,109,1,2024-03-07_22h02.38.314,Memory and Syntax,2023.2.3,MacIntel,60.24096386,,,,,147.1576,149.1563,n,0,1.0492,,149.1564,149.1566,,0,149.1567,149.1572,,149.1572,149.1573,,0,61,61,61,1,cvmt/test_items/t62.jpeg,o,,,,,,,,,,,,,,,,,,,,,,
,,117393,109,1,2024-03-07_22h02.38.314,Memory and Syntax,2023.2.3,MacIntel,60.24096386,,,,,149.1577,151.1562,n,0,1.0645,,151.1564,151.1566,,0,151.1566,151.1573,,151.1573,151.1574,,0,62,62,62,1,cvmt/test_items/t63.jpeg,o,,,,,,,,,,,,,,,,,,,,,,
,,117393,109,1,2024-03-07_22h02.38.314,Memory and Syntax,2023.2.3,MacIntel,60.24096386,,,,,151.1576,153.1563,n,0,0.7651,,153.1563,153.1565,,0,153.1566,153.1571,,153.1572,153.1572,,0,63,63,63,1,cvmt/test_items/t64.jpeg,o,,,,,,,,,,,,,,,,,,,,,,
,,117393,109,1,2024-03-07_22h02.38.314,Memory and Syntax,2023.2.3,MacIntel,60.24096386,,,,,153.1575,155.1562,o,1,0.6516,,155.1563,155.1565,,0,155.1565,155.157,,155.157,155.1571,,0,64,64,64,1,cvmt/test_items/t65.jpeg,o,,,,,,,,,,,,,,,,,,,,,,
,,117393,109,1,2024-03-07_22h02.38.314,Memory and Syntax,2023.2.3,MacIntel,60.24096386,,,,,155.1574,157.1564,n,0,0.7815,,157.1565,157.1567,,0,157.1567,157.1573,,157.1573,157.1574,,0,65,65,65,1,cvmt/test_items/t66.jpeg,o,,,,,,,,,,,,,,,,,,,,,,
,,117393,109,1,2024-03-07_22h02.38.314,Memory and Syntax,2023.2.3,MacIntel,60.24096386,,,,,157.1577,159.1562,n,1,0.733,,159.1562,159.1565,,0,159.1566,159.157,,159.157,159.1571,,0,66,66,66,1,cvmt/test_items/t67.jpeg,n,,,,,,,,,,,,,,,,,,,,,,
,,117393,109,1,2024-03-07_22h02.38.314,Memory and Syntax,2023.2.3,MacIntel,60.24096386,,,,,159.1575,161.1562,n,0,0.7928,,161.1563,161.1565,,0,161.1565,161.1571,,161.1572,161.1572,,0,67,67,67,1,cvmt/test_items/t68.jpeg,o,,,,,,,,,,,,,,,,,,,,,,
,,117393,109,1,2024-03-07_22h02.38.314,Memory and Syntax,2023.2.3,MacIntel,60.24096386,,,,,161.1576,163.1558,n,0,0.7508,,163.1559,163.1559,,0,163.156,163.1562,,163.1562,163.1562,,0,68,68,68,1,cvmt/test_items/t69.jpeg,o,,,,,,,,,,,,,,,,,,,,,,
,,117393,109,1,2024-03-07_22h02.38.314,Memory and Syntax,2023.2.3,MacIntel,60.24096386,,,,,163.1563,165.1563,n,0,0.799,,165.1564,165.1567,,0,165.1568,165.1573,,165.1574,165.1574,,0,69,69,69,1,cvmt/test_items/t70.jpeg,o,,,,,,,,,,,,,,,,,,,,,,
,,117393,109,1,2024-03-07_22h02.38.314,Memory and Syntax,2023.2.3,MacIntel,60.24096386,,,,,165.1577,167.1563,o,0,0.846,,167.1563,167.1566,,0,167.1566,167.1572,,167.1572,167.1573,,0,70,70,70,1,cvmt/test_items/t71.jpeg,n,,,,,,,,,,,,,,,,,,,,,,
,,117393,109,1,2024-03-07_22h02.38.314,Memory and Syntax,2023.2.3,MacIntel,60.24096386,,,,,167.1577,169.1562,o,1,0.7884,,169.1563,169.1565,,0,169.1566,169.1571,,169.1571,169.1572,,0,71,71,71,1,cvmt/test_items/t72.jpeg,o,,,,,,,,,,,,,,,,,,,,,,
,,117393,109,1,2024-03-07_22h02.38.314,Memory and Syntax,2023.2.3,MacIntel,60.24096386,,,,,169.1575,171.1564,o,1,0.714,,171.1564,171.1567,,0,171.1568,171.1574,,171.1574,171.1575,,0,72,72,72,1,cvmt/test_items/t73.jpeg,o,,,,,,,,,,,,,,,,,,,,,,
,,117393,109,1,2024-03-07_22h02.38.314,Memory and Syntax,2023.2.3,MacIntel,60.24096386,,,,,171.1578,173.1563,n,0,0.7639,,173.1564,173.1566,,0,173.1567,173.1572,,173.1572,173.1573,,0,73,73,73,1,cvmt/test_items/t74.jpeg,o,,,,,,,,,,,,,,,,,,,,,,
,,117393,109,1,2024-03-07_22h02.38.314,Memory and Syntax,2023.2.3,MacIntel,60.24096386,,,,,173.1578,175.1564,n,0,0.7466,,175.1565,175.1567,,0,175.1568,175.1573,,175.1573,175.1575,,0,74,74,74,1,cvmt/test_items/t75.jpeg,o,,,,,,,,,,,,,,,,,,,,,,
,,117393,109,1,2024-03-07_22h02.38.314,Memory and Syntax,2023.2.3,MacIntel,60.24096386,,,,,175.1578,177.1563,n,0,0.7308,,177.1563,177.1566,,0,177.1566,177.1572,,177.1572,177.1573,,0,75,75,75,1,cvmt/test_items/t76.jpeg,o,,,,,,,,,,,,,,,,,,,,,,
,,117393,109,1,2024-03-07_22h02.38.314,Memory and Syntax,2023.2.3,MacIntel,60.24096386,,,,,177.1577,179.1564,n,0,0.6961,,179.1564,179.1566,,0,179.1567,179.1573,,179.1573,179.1574,,0,76,76,76,1,cvmt/test_items/t77.jpeg,o,,,,,,,,,,,,,,,,,,,,,,
,,117393,109,1,2024-03-07_22h02.38.314,Memory and Syntax,2023.2.3,MacIntel,60.24096386,,,,,179.1577,181.1563,n,0,1.0406,,181.1563,181.1567,,0,181.1567,181.1572,,181.1573,181.1573,,0,77,77,77,1,cvmt/test_items/t78.jpeg,o,,,,,,,,,,,,,,,,,,,,,,
,,117393,109,1,2024-03-07_22h02.38.314,Memory and Syntax,2023.2.3,MacIntel,60.24096386,,,,,181.1576,183.1562,n,0,0.8298,,183.1562,183.1565,,0,183.1565,183.1571,,183.1571,183.1572,,0,78,78,78,1,cvmt/test_items/t79.jpeg,o,,,,,,,,,,,,,,,,,,,,,,
,,117393,109,1,2024-03-07_22h02.38.314,Memory and Syntax,2023.2.3,MacIntel,60.24096386,,,,,183.1576,185.1562,o,0,0.7313,,185.1563,185.1565,,0,185.1566,185.1571,,185.1572,185.1573,,0,79,79,79,1,cvmt/test_items/t80.jpeg,n,,,,,,,,,,,,,,,,,,,,,,
,,117393,109,1,2024-03-07_22h02.38.314,Memory and Syntax,2023.2.3,MacIntel,60.24096386,,,,,185.1576,187.1562,n,0,0.9168,,187.1563,187.1565,,0,187.1566,187.1571,,187.1571,187.1572,,0,80,80,80,1,cvmt/test_items/t81.jpeg,o,,,,,,,,,,,,,,,,,,,,,,
,,117393,109,1,2024-03-07_22h02.38.314,Memory and Syntax,2023.2.3,MacIntel,60.24096386,,,,,187.1575,189.1562,o,1,0.5322,,189.1563,189.1564,,0,189.1565,189.157,,189.1571,189.1572,,0,81,81,81,1,cvmt/test_items/t82.jpeg,o,,,,,,,,,,,,,,,,,,,,,,
,,117393,109,1,2024-03-07_22h02.38.314,Memory and Syntax,2023.2.3,MacIntel,60.24096386,,,,,189.1575,191.1562,n,0,1.5129,,191.1563,191.1565,,0,191.1565,191.157,,191.157,191.1571,,0,82,82,82,1,cvmt/test_items/t83.jpeg,o,,,,,,,,,,,,,,,,,,,,,,
,,117393,109,1,2024-03-07_22h02.38.314,Memory and Syntax,2023.2.3,MacIntel,60.24096386,,,,,191.1575,193.1562,o,1,0.7391,,193.1563,193.1565,,0,193.1566,193.157,,193.157,193.1572,,0,83,83,83,1,cvmt/test_items/t84.jpeg,o,,,,,,,,,,,,,,,,,,,,,,
,,117393,109,1,2024-03-07_22h02.38.314,Memory and Syntax,2023.2.3,MacIntel,60.24096386,,,,,193.1574,195.1563,n,0,0.6327,,195.1563,195.1565,,0,195.1565,195.157,,195.157,195.157,,0,84,84,84,1,cvmt/test_items/t85.jpeg,o,,,,,,,,,,,,,,,,,,,,,,
,,117393,109,1,2024-03-07_22h02.38.314,Memory and Syntax,2023.2.3,MacIntel,60.24096386,,,,,195.1574,197.1565,o,1,0.6304,,197.1566,197.1568,,0,197.1569,197.1574,,197.1574,197.1576,,0,85,85,85,1,cvmt/test_items/t86.jpeg,o,,,,,,,,,,,,,,,,,,,,,,
,,117393,109,1,2024-03-07_22h02.38.314,Memory and Syntax,2023.2.3,MacIntel,60.24096386,,,,,197.158,199.1563,n,0,0.6473,,199.1564,199.1566,,0,199.1567,199.1573,,199.1573,199.1573,,0,86,86,86,1,cvmt/test_items/t87.jpeg,o,,,,,,,,,,,,,,,,,,,,,,
,,117393,109,1,2024-03-07_22h02.38.314,Memory and Syntax,2023.2.3,MacIntel,60.24096386,,,,,199.1577,201.1562,n,1,0.8077,,201.1562,201.1566,,0,201.1566,201.1572,,201.1572,201.1573,,0,87,87,87,1,cvmt/test_items/t88.jpeg,n,,,,,,,,,,,,,,,,,,,,,,
,,117393,109,1,2024-03-07_22h02.38.314,Memory and Syntax,2023.2.3,MacIntel,60.24096386,,,,,201.1577,203.1562,o,0,0.6641,,203.1563,203.1566,,0,203.1566,203.1572,,203.1572,203.1574,,0,88,88,88,1,cvmt/test_items/t89.jpeg,n,,,,,,,,,,,,,,,,,,,,,,
,,117393,109,1,2024-03-07_22h02.38.314,Memory and Syntax,2023.2.3,MacIntel,60.24096386,,,,,203.1577,205.1561,o,1,0.7427,,205.1563,205.1564,,0,205.1565,205.1571,,205.1571,205.1572,,0,89,89,89,1,cvmt/test_items/t90.jpeg,o,,,,,,,,,,,,,,,,,,,,,,
,,117393,109,1,2024-03-07_22h02.38.314,Memory and Syntax,2023.2.3,MacIntel,60.24096386,,,,,205.1575,207.1562,n,0,0.9312,,207.1563,207.1566,,0,207.1566,207.1572,,207.1572,207.1573,,0,90,90,90,1,cvmt/test_items/t91.jpeg,o,,,,,,,,,,,,,,,,,,,,,,
,,117393,109,1,2024-03-07_22h02.38.314,Memory and Syntax,2023.2.3,MacIntel,60.24096386,,,,,207.1575,209.1562,n,0,0.69,,209.1563,209.1565,,0,209.1565,209.1571,,209.1571,209.1571,,0,91,91,91,1,cvmt/test_items/t92.jpeg,o,,,,,,,,,,,,,,,,,,,,,,
,,117393,109,1,2024-03-07_22h02.38.314,Memory and Syntax,2023.2.3,MacIntel,60.24096386,,,,,209.1574,211.1558,o,1,0.6304,,211.1558,211.1559,,0,211.1559,211.1561,,211.1561,211.1561,,0,92,92,92,1,cvmt/test_items/t93.jpeg,o,,,,,,,,,,,,,,,,,,,,,,
,,117393,109,1,2024-03-07_22h02.38.314,Memory and Syntax,2023.2.3,MacIntel,60.24096386,,,,,211.1562,213.1555,o,1,0.9989,,213.1556,213.1558,,0,213.1558,213.1563,,213.1563,213.1564,,0,93,93,93,1,cvmt/test_items/t94.jpeg,o,,,,,,,,,,,,,,,,,,,,,,
,,117393,109,1,2024-03-07_22h02.38.314,Memory and Syntax,2023.2.3,MacIntel,60.24096386,,,,,213.1568,215.1561,n,0,0.9097,,215.1562,215.1565,,0,215.1565,215.157,,215.1571,215.1571,,0,94,94,94,1,cvmt/test_items/t95.jpeg,o,,,,,,,,,,,,,,,,,,,,,,
,,117393,109,1,2024-03-07_22h02.38.314,Memory and Syntax,2023.2.3,MacIntel,60.24096386,,,,,215.1575,217.1563,n,0,0.7247,,217.1564,217.1567,,0,217.1567,217.1573,,217.1573,217.1574,,0,95,95,95,1,cvmt/test_items/t96.jpeg,o,,,,,,,,,,,,,,,,,,,,,,
,,117393,109,1,2024-03-07_22h02.38.314,Memory and Syntax,2023.2.3,MacIntel,60.24096386,,,,,217.1578,219.1562,o,1,0.7432,,219.1562,219.1565,,0,219.1565,219.157,,219.157,219.1571,,0,96,96,96,1,cvmt/test_items/t97.jpeg,o,,,,,,,,,,,,,,,,,,,,,,
,,117393,109,1,2024-03-07_22h02.38.314,Memory and Syntax,2023.2.3,MacIntel,60.24096386,,,,,219.1574,221.1561,n,1,0.7488,,221.1562,221.1566,,0,221.1567,221.1571,,221.1572,221.1573,,0,97,97,97,1,cvmt/test_items/t98.jpeg,n,,,,,,,,,,,,,,,,,,,,,,
,,117393,109,1,2024-03-07_22h02.38.314,Memory and Syntax,2023.2.3,MacIntel,60.24096386,,,,,221.1576,223.1561,o,1,0.6992,,223.1562,223.1565,,0,223.1565,223.1571,,223.1571,223.1572,,0,98,98,98,1,cvmt/test_items/t99.jpeg,o,,,,,,,,,,,,,,,,,,,,,,
,,117393,109,1,2024-03-07_22h02.38.314,Memory and Syntax,2023.2.3,MacIntel,60.24096386,,,,,223.1576,225.1553,o,1,0.657,,225.1554,225.1556,,0,225.1556,225.1562,,225.1562,225.1562,,0,99,99,99,1,cvmt/test_items/t100.jpeg,o,,,,,,,,,,,,,,,,,,,,,,
,,117393,109,1,2024-03-07_22h02.38.314,Memory and Syntax,2023.2.3,MacIntel,60.24096386,,,,,225.1565,227.1558,n,0,0.7998,,227.1558,227.1559,,0,227.156,227.1562,,227.1562,227.1562,,0,100,100,100,1,cvmt/test_items/t101.jpeg,o,,,,,,,,,,,,,,,,,,,,,,
,,117393,109,1,2024-03-07_22h02.38.314,Memory and Syntax,2023.2.3,MacIntel,60.24096386,,,,,227.1564,229.1561,o,1,0.6701,,229.1562,229.1565,,0,229.1566,229.1572,,229.1573,229.1574,,0,101,101,101,1,cvmt/test_items/t102.jpeg,o,,,,,,,,,,,,,,,,,,,,,,
,,117393,109,1,2024-03-07_22h02.38.314,Memory and Syntax,2023.2.3,MacIntel,60.24096386,,,,,229.1578,231.1563,n,0,1.4973,,231.1563,231.1567,,0,231.1567,231.1573,,231.1573,231.1574,,0,102,102,102,1,cvmt/test_items/t103.jpeg,o,,,,,,,,,,,,,,,,,,,,,,
,,117393,109,1,2024-03-07_22h02.38.314,Memory and Syntax,2023.2.3,MacIntel,60.24096386,,,,,231.1577,233.156,o,1,0.9345,,233.1561,233.1562,,0,233.1562,233.1567,,233.1567,233.1567,,0,103,103,103,1,cvmt/test_items/t104.jpeg,o,,,,,,,,,,,,,,,,,,,,,,
,,117393,109,1,2024-03-07_22h02.38.314,Memory and Syntax,2023.2.3,MacIntel,60.24096386,,,,,233.157,235.1561,n,1,0.6989,,235.1562,235.1564,,0,235.1564,235.1569,,235.1569,235.1571,,0,104,104,104,1,cvmt/test_items/t105.jpeg,n,,,,,,,,,,,,,,,,,,,,,,
,,117393,109,1,2024-03-07_22h02.38.314,Memory and Syntax,2023.2.3,MacIntel,60.24096386,,,,,235.1575,237.1562,o,1,1.1424,,237.1562,237.1564,,0,237.1564,237.1571,,237.1571,237.1572,,0,105,105,105,1,cvmt/test_items/t106.jpeg,o,,,,,,,,,,,,,,,,,,,,,,
,,117393,109,1,2024-03-07_22h02.38.314,Memory and Syntax,2023.2.3,MacIntel,60.24096386,,,,,237.1575,239.1562,o,1,1.2082,,239.1562,239.1564,,0,239.1564,239.157,,239.1571,239.1571,,0,106,106,106,1,cvmt/test_items/t107.jpeg,o,,,,,,,,,,,,,,,,,,,,,,
,,117393,109,1,2024-03-07_22h02.38.314,Memory and Syntax,2023.2.3,MacIntel,60.24096386,,,,,239.1574,241.1562,n,0,0.763,,241.1562,241.1565,,0,241.1565,241.1571,,241.1571,241.1571,,0,107,107,107,1,cvmt/test_items/t108.jpeg,o,,,,,,,,,,,,,,,,,,,,,,
,,117393,109,1,2024-03-07_22h02.38.314,Memory and Syntax,2023.2.3,MacIntel,60.24096386,,,,,241.1575,243.1562,n,0,1.2484,,243.1562,243.1565,,0,243.1565,243.1571,,243.1571,243.1571,,0,108,108,108,1,cvmt/test_items/t109.jpeg,o,,,,,,,,,,,,,,,,,,,,,,
,,117393,109,1,2024-03-07_22h02.38.314,Memory and Syntax,2023.2.3,MacIntel,60.24096386,,,,,243.1575,245.1561,n,0,0.8334,,245.1562,245.1565,,0,245.1565,245.157,,245.157,245.1571,,0,109,109,109,1,cvmt/test_items/t110.jpeg,o,,,,,,,,,,,,,,,,,,,,,,
,,117393,109,1,2024-03-07_22h02.38.314,Memory and Syntax,2023.2.3,MacIntel,60.24096386,,,,,245.1575,247.1562,o,1,1.1127,,247.1563,247.1565,,0,247.1566,247.1571,,247.1571,247.1572,,0,110,110,110,1,cvmt/test_items/t111.jpeg,o,,,,,,,,,,,,,,,,,,,,,,
,,117393,109,1,2024-03-07_22h02.38.314,Memory and Syntax,2023.2.3,MacIntel,60.24096386,,,,,247.1575,249.1562,n,0,0.8796,,249.1562,249.1564,,0,249.1564,249.1569,,249.157,249.1571,,0,111,111,111,1,cvmt/test_items/t112.jpeg,o,,,,,,,,,,,,,,,,,,,,,,
,,117393,109,1,2024-03-07_22h02.38.314,Memory and Syntax,2023.2.3,MacIntel,60.24096386,,,,,249.1574,251.1562,o,0,0.8322,,251.1562,251.1565,,0,251.1566,251.157,,251.157,251.1572,,0,112,112,112,1,cvmt/test_items/t113.jpeg,n,,,,,,,,,,,,,,,,,,,,,,
,,117393,109,1,2024-03-07_22h02.38.314,Memory and Syntax,2023.2.3,MacIntel,60.24096386,,,,,251.1575,253.1562,n,0,0.7475,,253.1562,253.1564,,0,253.1564,253.157,,253.1571,253.1572,,0,113,113,113,1,cvmt/test_items/t114.jpeg,o,,,,,,,,,,,,,,,,,,,,,,
,,117393,109,1,2024-03-07_22h02.38.314,Memory and Syntax,2023.2.3,MacIntel,60.24096386,,,,,253.1574,255.1561,o,1,0.7329,,255.1561,255.1562,,0,255.1563,255.1566,,255.1566,255.1566,,0,114,114,114,1,cvmt/test_items/t115.jpeg,o,,,,,,,,,,,,,,,,,,,,,,
,,117393,109,1,2024-03-07_22h02.38.314,Memory and Syntax,2023.2.3,MacIntel,60.24096386,,,,,255.1569,257.1561,n,0,0.7292,,257.1561,257.1564,,0,257.1564,257.157,,257.157,257.1572,,0,115,115,115,1,cvmt/test_items/t116.jpeg,o,,,,,,,,,,,,,,,,,,,,,,
,,117393,109,1,2024-03-07_22h02.38.314,Memory and Syntax,2023.2.3,MacIntel,60.24096386,,,,,257.1577,259.1561,o,1,0.7507,,259.1562,259.1564,,0,259.1564,259.157,,259.157,259.1571,,0,116,116,116,1,cvmt/test_items/t117.jpeg,o,,,,,,,,,,,,,,,,,,,,,,
,,117393,109,1,2024-03-07_22h02.38.314,Memory and Syntax,2023.2.3,MacIntel,60.24096386,,,,,259.1574,261.1558,o,1,0.6929,,261.1558,261.1559,,0,261.1559,261.1561,,261.1561,261.1561,,0,117,117,117,1,cvmt/test_items/t118.jpeg,o,,,,,,,,,,,,,,,,,,,,,,
,,117393,109,1,2024-03-07_22h02.38.314,Memory and Syntax,2023.2.3,MacIntel,60.24096386,,,,,261.1562,263.1561,o,1,0.6683,,263.1562,263.1564,,0,263.1564,263.157,,263.157,263.157,,0,118,118,118,1,cvmt/test_items/t119.jpeg,o,,,,,,,,,,,,,,,,,,,,,,
,,117393,109,1,2024-03-07_22h02.38.314,Memory and Syntax,2023.2.3,MacIntel,60.24096386,,,,,263.1574,265.1561,o,1,0.7146,,265.1562,265.1564,,0,265.1564,265.1569,,265.1569,265.1571,,0,119,119,119,1,cvmt/test_items/t120.jpeg,o,,,,,,,,,,,,,,,,,,,,,,
,,117393,109,1,2024-03-07_22h02.38.314,Memory and Syntax,2023.2.3,MacIntel,60.24096386,,,,,265.1574,267.1561,o,1,1.0241,,267.1561,267.1564,,0,267.1564,267.157,,267.157,267.157,,0,120,120,120,1,cvmt/test_items/t121.jpeg,o,,,,,,,,,,,,,,,,,,,,,,
,,117393,109,1,2024-03-07_22h02.38.314,Memory and Syntax,2023.2.3,MacIntel,60.24096386,,,,,267.1574,269.1561,o,1,0.9161,,269.1562,269.1564,,0,269.1564,269.1569,,269.157,269.1571,,0,121,121,121,1,cvmt/test_items/t122.jpeg,o,,,,,,,,,,,,,,,,,,,,,,
,,117393,109,1,2024-03-07_22h02.38.314,Memory and Syntax,2023.2.3,MacIntel,60.24096386,,,,,269.1574,271.1561,o,0,0.6736,,271.1562,271.1564,,0,271.1564,271.157,,271.157,271.157,,0,122,122,122,1,cvmt/test_items/t123.jpeg,n,,,,,,,,,,,,,,,,,,,,,,
,,117393,109,1,2024-03-07_22h02.38.314,Memory and Syntax,2023.2.3,MacIntel,60.24096386,,,,,271.1574,273.156,o,1,0.8698,,273.1561,273.1563,,0,273.1564,273.1569,,273.1569,273.157,,0,123,123,123,1,cvmt/test_items/t124.jpeg,o,,,,,,,,,,,,,,,,,,,,,,
,,117393,109,1,2024-03-07_22h02.38.314,Memory and Syntax,2023.2.3,MacIntel,60.24096386,,,,,273.1574,275.156,o,1,0.6508,,275.1561,275.1563,,0,275.1564,275.157,,275.157,275.157,,0,124,124,124,1,cvmt/test_items/t125.jpeg,o,,,,,,,,,,,,,,,,,,,,,,
,,117393,109,1,2024-03-07_22h02.38.314,Memory and Syntax,2023.2.3,MacIntel,60.24096386,,,,,275.1574,277.1561,o,1,0.5897,,277.1562,277.1564,,0,277.1565,277.157,,277.1571,277.1572,,0,125,125,125,1,cvmt/test_items/t126.jpeg,o,,,,,,,,,,,,,,,,,,,,,,
,,117393,109,1,2024-03-07_22h02.38.314,Memory and Syntax,2023.2.3,MacIntel,60.24096386,,,,,277.1575,279.1561,o,1,0.5982,,279.1562,279.1564,,0,279.1564,279.1569,,279.1569,279.157,,0,126,126,126,1,cvmt/test_items/t127.jpeg,o,,,,,,,,,,,,,,,,,,,,,,
,,117393,109,1,2024-03-07_22h02.38.314,Memory and Syntax,2023.2.3,MacIntel,60.24096386,,,,,279.1574,281.1562,o,1,0.6461,,281.1562,281.1564,,0,281.1565,281.157,,281.1571,281.1571,,0,127,127,127,1,cvmt/test_items/t128.jpeg,o,,,,,,,,,,,,,,,,,,,,,,
,,117393,109,1,2024-03-07_22h02.38.314,Memory and Syntax,2023.2.3,MacIntel,60.24096386,,,,,281.1574,283.1561,o,1,0.6676,,283.1561,283.1563,,0,283.1563,283.1569,,283.1569,283.157,,0,128,128,128,1,cvmt/test_items/t129.jpeg,o,,,,,,,,,,,,,,,,,,,,,,
,,117393,109,1,2024-03-07_22h02.38.314,Memory and Syntax,2023.2.3,MacIntel,60.24096386,,,,,283.1573,285.1559,o,1,0.5749,,285.1561,285.1562,,0,285.1563,285.1566,,285.1566,285.1567,,0,129,129,129,1,cvmt/test_items/t130.jpeg,o,,,,,,,,,,,,,,,,,,,,,,
,,117393,109,1,2024-03-07_22h02.38.314,Memory and Syntax,2023.2.3,MacIntel,60.24096386,,,,,285.1569,287.1561,o,0,0.8174,,287.1562,287.1564,,0,287.1564,287.1569,,287.1569,287.157,,0,130,130,130,1,cvmt/test_items/t131.jpeg,n,,,,,,,,,,,,,,,,,,,,,,
,,117393,109,1,2024-03-07_22h02.38.314,Memory and Syntax,2023.2.3,MacIntel,60.24096386,,,,,287.1573,289.156,o,1,1.5801,,289.1561,289.1564,,0,289.1564,289.1569,,289.1569,289.157,,0,131,131,131,1,cvmt/test_items/t132.jpeg,o,,,,,,,,,,,,,,,,,,,,,,
,,117393,109,1,2024-03-07_22h02.38.314,Memory and Syntax,2023.2.3,MacIntel,60.24096386,,,,,289.1573,291.1557,o,1,0.7029,,291.1558,291.1559,,0,291.156,291.1562,,291.1562,291.1562,,0,132,132,132,1,cvmt/test_items/t133.jpeg,o,,,,,,,,,,,,,,,,,,,,,,
,,117393,109,1,2024-03-07_22h02.38.314,Memory and Syntax,2023.2.3,MacIntel,60.24096386,,,,,291.1564,293.1561,o,1,0.6393,,293.1561,293.1564,,0,293.1564,293.1569,,293.1569,293.157,,0,133,133,133,1,cvmt/test_items/t134.jpeg,o,,,,,,,,,,,,,,,,,,,,,,
,,117393,109,1,2024-03-07_22h02.38.314,Memory and Syntax,2023.2.3,MacIntel,60.24096386,,,,,293.1574,295.1561,o,1,0.8206,,295.1562,295.1565,,0,295.1565,295.1571,,295.1571,295.1572,,0,134,134,134,1,cvmt/test_items/t135.jpeg,o,,,,,,,,,,,,,,,,,,,,,,
,,117393,109,1,2024-03-07_22h02.38.314,Memory and Syntax,2023.2.3,MacIntel,60.24096386,,,,,,,,,,,,,,,,,,,,,,,,,,,,295.1583,295.1587,0.0004,295.167,300.5574,space,4.8176,,300.5687,306.4076,1,5.8249,0,0,0,0,1,1,1,WOV,8B,Practiced the virtuoso many pieces.
,,117393,109,1,2024-03-07_22h02.38.314,Memory and Syntax,2023.2.3,MacIntel,60.24096386,,,,,,,,,,,,,,,,,,,,,,,,,,,,,,,,,,,,306.4082,310.2727,6,3.8618,0,1,1,1,1,1,2,AS,6A,The rickety old boat sank.
,,117393,109,1,2024-03-07_22h02.38.314,Memory and Syntax,2023.2.3,MacIntel,60.24096386,,,,,,,,,,,,,,,,,,,,,,,,,,,,,,,,,,,,310.273,313.6732,5,3.3891,0,2,2,2,1,1,3,WO,6A,The waiter set the table promptly.
,,117393,109,1,2024-03-07_22h02.38.314,Memory and Syntax,2023.2.3,MacIntel,60.24096386,,,,,,,,,,,,,,,,,,,,,,,,,,,,,,,,,,,,313.6738,317.206,1,3.5274,0,3,3,3,1,1,4,control,12B,They anticipate that everybody you do will contact Megan.
,,117393,109,1,2024-03-07_22h02.38.314,Memory and Syntax,2023.2.3,MacIntel,60.24096386,,,,,,,,,,,,,,,,,,,,,,,,,,,,,,,,,,,,317.2064,320.4726,6,3.2556,0,4,4,4,1,1,5,ASV,11B,The cat moved himself away.
,,117393,109,1,2024-03-07_22h02.38.314,Memory and Syntax,2023.2.3,MacIntel,60.24096386,,,,,,,,,,,,,,,,,,,,,,,,,,,,,,,,,,,,320.4731,324.1392,1,3.6639,0,5,5,5,1,1,6,ASV,7B,She laughed herself at the dog.
,,117393,109,1,2024-03-07_22h02.38.314,Memory and Syntax,2023.2.3,MacIntel,60.24096386,,,,,,,,,,,,,,,,,,,,,,,,,,,,,,,,,,,,324.1397,327.4394,6,3.2866,0,6,6,6,1,1,7,AS,5A,The professor cried about the article.
,,117393,109,1,2024-03-07_22h02.38.314,Memory and Syntax,2023.2.3,MacIntel,60.24096386,,,,,,,,,,,,,,,,,,,,,,,,,,,,,,,,,,,,327.4399,331.756,7,4.3138,0,7,7,7,1,1,8,WO,5A,My sibling expected a good grade.
,,117393,109,1,2024-03-07_22h02.38.314,Memory and Syntax,2023.2.3,MacIntel,60.24096386,,,,,,,,,,,,,,,,,,,,,,,,,,,,,,,,,,,,331.7563,347.356,6,15.5867,0,8,8,8,1,1,9,filler,1A,There has been a man considered violent.
,,117393,109,1,2024-03-07_22h02.38.314,Memory and Syntax,2023.2.3,MacIntel,60.24096386,,,,,,,,,,,,,,,,,,,,,,,,,,,,,,,,,,,,347.3567,353.7228,6,6.3532,0,9,9,9,1,1,10,AS,2A,Taylor subscribed to the channel.
,,117393,109,1,2024-03-07_22h02.38.314,Memory and Syntax,2023.2.3,MacIntel,60.24096386,,,,,,,,,,,,,,,,,,,,,,,,,,,,,,,,,,,,353.7234,360.8056,1.1,7.0783,0,10,10,10,1,1,11,control,10B,There might fossils seem to be several miles underground.
,,117393,109,1,2024-03-07_22h02.38.314,Memory and Syntax,2023.2.3,MacIntel,60.24096386,,,,,,,,,,,,,,,,,,,,,,,,,,,,,,,,,,,,360.8061,365.5057,1,4.6967,0,11,11,11,1,1,12,ASV,8B,Esperanza sighed herself at the desk.
,,117393,109,1,2024-03-07_22h02.38.314,Memory and Syntax,2023.2.3,MacIntel,60.24096386,,,,,,,,,,,,,,,,,,,,,,,,,,,,,,,,,,,,365.506,368.506,6,2.9873,0,12,12,12,1,1,13,WOV,9B,Read we five pages each night.
,,117393,109,1,2024-03-07_22h02.38.314,Memory and Syntax,2023.2.3,MacIntel,60.24096386,,,,,,,,,,,,,,,,,,,,,,,,,,,,,,,,,,,,368.5065,371.3721,1,2.8622,0,13,13,13,1,1,14,WOV,7B,Frightened the eerie sound Seth.
,,117393,109,1,2024-03-07_22h02.38.314,Memory and Syntax,2023.2.3,MacIntel,60.24096386,,,,,,,,,,,,,,,,,,,,,,,,,,,,,,,,,,,,371.3723,374.6222,6,3.2377,0,14,14,14,1,1,15,filler,2A,"Arty is sick, and Mark is too."
,,117393,109,1,2024-03-07_22h02.38.314,Memory and Syntax,2023.2.3,MacIntel,60.24096386,,,,,,,,,,,,,,,,,,,,,,,,,,,,,,,,,,,,374.6225,380.056,1,5.4305,0,15,15,15,1,1,16,ASV,9B,The prime minister confessed herself to bribery.
,,117393,109,1,2024-03-07_22h02.38.314,Memory and Syntax,2023.2.3,MacIntel,60.24096386,,,,,,,,,,,,,,,,,,,,,,,,,,,,,,,,,,,,380.0565,384.7058,1,4.6358,0,16,16,16,1,1,17,control,7B,Olivia told Gregory when to exonerate herself.
,,117393,109,1,2024-03-07_22h02.38.314,Memory and Syntax,2023.2.3,MacIntel,60.24096386,,,,,,,,,,,,,,,,,,,,,,,,,,,,,,,,,,,,384.7063,388.6215,1,3.9127,0,17,17,17,1,1,18,control,11B,There are likely students to be in the library.
,,117393,109,1,2024-03-07_22h02.38.314,Memory and Syntax,2023.2.3,MacIntel,60.24096386,,,,,,,,,,,,,,,,,,,,,,,,,,,,,,,,,,,,388.6218,391.4882,6,2.8547,0,18,18,18,1,1,19,filler,5A,I told Mandy who would win the election.
,,117393,109,1,2024-03-07_22h02.38.314,Memory and Syntax,2023.2.3,MacIntel,60.24096386,,,,,,,,,,,,,,,,,,,,,,,,,,,,,,,,,,,,391.4885,394.6226,1,3.1208,0,19,19,19,1,1,20,control,9B,We consider there three problems.
,,117393,109,1,2024-03-07_22h02.38.314,Memory and Syntax,2023.2.3,MacIntel,60.24096386,,,,,,,,,,,,,,,,,,,,,,,,,,,,,,,,,,,,394.6231,397.3893,1,2.7529,0,20,20,20,1,1,21,control,8B,She called Victor and yelled at.
,,117393,109,1,2024-03-07_22h02.38.314,Memory and Syntax,2023.2.3,MacIntel,60.24096386,,,,,,,,,,,,,,,,,,,,,,,,,,,,,,,,,,,,397.3898,400.4724,6,3.0787,0,21,21,21,1,1,22,WO,4A,The bully pushed every student.
,,117393,109,1,2024-03-07_22h02.38.314,Memory and Syntax,2023.2.3,MacIntel,60.24096386,,,,,,,,,,,,,,,,,,,,,,,,,,,,,,,,,,,,400.4729,403.522,5.9,3.0458,0,22,22,22,1,1,23,WO,3A,Miguel baked delicious cupcakes.
,,117393,109,1,2024-03-07_22h02.38.314,Memory and Syntax,2023.2.3,MacIntel,60.24096386,,,,,,,,,,,,,,,,,,,,,,,,,,,,,,,,,,,,403.5223,406.4054,6,2.8704,0,23,23,23,1,1,24,WO,1A,Abby answered the question.
,,117393,109,1,2024-03-07_22h02.38.314,Memory and Syntax,2023.2.3,MacIntel,60.24096386,,,,,,,,,,,,,,,,,,,,,,,,,,,,,,,,,,,,406.4059,409.5391,6,3.1297,0,24,24,24,1,1,25,filler,3A,Brittany attempted to touch the porcupine.
,,117393,109,1,2024-03-07_22h02.38.314,Memory and Syntax,2023.2.3,MacIntel,60.24096386,,,,,,,,,,,,,,,,,,,,,,,,,,,,,,,,,,,,409.5396,412.2885,6,2.7461,0,25,25,25,1,1,26,AS,3A,Gracie stayed by the window.
,,117393,109,1,2024-03-07_22h02.38.314,Memory and Syntax,2023.2.3,MacIntel,60.24096386,,,,,,,,,,,,,,,,,,,,,,,,,,,,,,,,,,,,412.2889,415.6882,1,3.3898,0,26,26,26,1,1,27,WOV,11B,Wrote she her boyfriend a poem.
,,117393,109,1,2024-03-07_22h02.38.314,Memory and Syntax,2023.2.3,MacIntel,60.24096386,,,,,,,,,,,,,,,,,,,,,,,,,,,,,,,,,,,,415.6886,419.5392,1,3.8379,0,27,27,27,1,1,28,WOV,12B,Watched Lily a movie.
,,117393,109,1,2024-03-07_22h02.38.314,Memory and Syntax,2023.2.3,MacIntel,60.24096386,,,,,,,,,,,,,,,,,,,,,,,,,,,,,,,,,,,,419.5398,422.6057,6.1,3.0532,0,28,28,28,1,1,29,WO,2A,Jackie won the close race.
,,117393,109,1,2024-03-07_22h02.38.314,Memory and Syntax,2023.2.3,MacIntel,60.24096386,,,,,,,,,,,,,,,,,,,,,,,,,,,,,,,,,,,,422.6062,425.7557,6,3.1462,0,29,29,29,1,1,30,AS,4A,Tomas drank from the water pitcher.
,,117393,109,1,2024-03-07_22h02.38.314,Memory and Syntax,2023.2.3,MacIntel,60.24096386,,,,,,,,,,,,,,,,,,,,,,,,,,,,,,,,,,,,425.756,428.8226,1,3.0536,0,30,30,30,1,1,31,WOV,10B,Kissed Kareem his boyfriend.
,,117393,109,1,2024-03-07_22h02.38.314,Memory and Syntax,2023.2.3,MacIntel,60.24096386,,,,,,,,,,,,,,,,,,,,,,,,,,,,,,,,,,,,428.8231,432.1058,6,3.2792,0,31,31,31,1,1,32,ASV,10B,The children quieted themselves.
,,117393,109,1,2024-03-07_22h02.38.314,Memory and Syntax,2023.2.3,MacIntel,60.24096386,,,,,,,,,,,,,,,,,,,,,,,,,,,,,,,,,,,,432.1062,435.0058,6,2.8869,0,32,32,32,1,1,33,AS,1A,They fidgeted in their chairs.
,,117393,109,1,2024-03-07_22h02.38.314,Memory and Syntax,2023.2.3,MacIntel,60.24096386,,,,,,,,,,,,,,,,,,,,,,,,,,,,,,,,,,,,435.0063,438.6891,6,3.6787,0,33,33,33,1,1,34,filler,4A,It seems to him that Kim solved the problem.
,,117393,109,1,2024-03-07_22h02.38.314,Memory and Syntax,2023.2.3,MacIntel,60.24096386,,,,,,,,,,,,,,,,,,,,,,,,,,,,,,,,,,,,438.6894,441.2723,6,2.5784,0,34,34,34,1,1,35,ASV,12B,The swimmers shaved themselves.