load.started,load.stopped,Sona ID,Participant ID,Session,date,expName,psychopyVersion,OS,frameRate,cvmtInstr.started,cvmtInstr.stopped,cvmtTaskInstr.started,cvmtTaskInstr.stopped,presentDesign.started,presentDesign.stopped,cvmt_key_resp.keys,cvmt_key_resp.corr,cvmtNoResp.started,cvmtNoResp.stopped,cvmt_key_resp2.keys,cvmt_key_resp2.corr,cvmt_key_resp2.rt,cvmt_key_resp2.duration,cvmtSampleFB.started,cvmtSampleFB.stopped,key_resp_15.keys,cvmtSampleFBFinal.started,cvmtSampleFBFinal.stopped,cvmt_final_samp_fb_key_resp.keys,cvmtTrials.thisRepN,cvmtTrials.thisTrialN,cvmtTrials.thisN,cvmtTrials.thisIndex,cvmtTrials.ran,cvmt_design,old_or_new,cvmt_key_resp.rt,cvmt_key_resp.duration,cvmtDelay.started,cvmtDelay.stopped,cvmt timer,engAJT_instr.started,engAJT_instr.stopped,start_ajt.keys,start_ajt.rt,start_ajt.duration,engAJT.started,engAJT.stopped,acceptability.response,acceptability.rt,engAJT_trials.thisRepN,engAJT_trials.thisTrialN,engAJT_trials.thisN,engAJT_trials.thisIndex,engAJT_trials.ran,ajt_list,list_position,condition,item,testSent
0.0011,0.5475,117393,180,1,2024-03-07_21h47.59.889,Memory and Syntax,2023.2.3,MacIntel,60.24096386,,,,,,,,,,,,,,,,,,,,,,,,,,,,,,,,,,,,,,,,,,,,,,,,,,,
,,117393,180,1,2024-03-07_21h47.59.889,Memory and Syntax,2023.2.3,MacIntel,60.24096386,0.5625,7.5584,7.5665,11.4572,11.4948,13.4755,,0,13.4769,14.6404,n,1,1.141,,14.6408,14.6423,,14.6427,14.6438,,0,0,0,0,1,cvmt/sample/s1.jpg,n,,,,,,,,,,,,,,,,,,,,,,,,
,,117393,180,1,2024-03-07_21h47.59.889,Memory and Syntax,2023.2.3,MacIntel,60.24096386,,,,,14.6451,16.6417,,0,16.6428,16.8743,n,1,0.2138,,16.8752,16.8772,,16.8779,16.8791,,0,1,1,1,1,cvmt/sample/s2.jpg,n,,,,,,,,,,,,,,,,,,,,,,,,
,,117393,180,1,2024-03-07_21h47.59.889,Memory and Syntax,2023.2.3,MacIntel,60.24096386,,,,,16.8814,18.8747,o,1,18.876,18.8775,,0,,,18.8781,18.8797,,18.8803,18.8814,,0,2,2,2,1,cvmt/sample/s3.jpg,o,1.3359,,,,,,,,,,,,,,,,,,,,,,,
,,117393,180,1,2024-03-07_21h47.59.889,Memory and Syntax,2023.2.3,MacIntel,60.24096386,,,,,18.8839,20.8746,n,1,20.8758,20.8772,,0,,,20.8778,20.8794,,20.8799,20.881,,0,3,3,3,1,cvmt/sample/s4.jpg,n,1.587,,,,,,,,,,,,,,,,,,,,,,,
,,117393,180,1,2024-03-07_21h47.59.889,Memory and Syntax,2023.2.3,MacIntel,60.24096386,,,,,20.8836,22.8749,n,1,22.876,22.8777,,0,,,22.8783,22.88,,22.8807,22.882,,0,4,4,4,1,cvmt/sample/s5.jpg,n,1.1499,,,,,,,,,,,,,,,,,,,,,,,
,,117393,180,1,2024-03-07_21h47.59.889,Memory and Syntax,2023.2.3,MacIntel,60.24096386,,,,,22.8841,24.8746,n,1,24.8758,24.8771,,0,,,24.8776,24.879,,24.8796,24.8815,,0,5,5,5,1,cvmt/sample/s6.jpg,n,1.1168,,,,,,,,,,,,,,,,,,,,,,,
,,117393,180,1,2024-03-07_21h47.59.889,Memory and Syntax,2023.2.3,MacIntel,60.24096386,,,,,24.8832,26.8744,o,1,26.8753,26.8767,,0,,,26.8774,26.8791,,26.8796,26.881,,0,6,6,6,1,cvmt/sample/s7.jpg,o,1.8024,,,,,,,,,,,,,,,,,,,,,,,
,,117393,180,1,2024-03-07_21h47.59.889,Memory and Syntax,2023.2.3,MacIntel,60.24096386,,,,,26.8831,28.8747,n,1,28.8759,28.8774,,0,,,28.8781,28.8796,,28.8802,28.8814,,0,7,7,7,1,cvmt/sample/s8.jpg,n,1.0672,,,,,,,,,,,,,,,,,,,,,,,
,,117393,180,1,2024-03-07_21h47.59.889,Memory and Syntax,2023.2.3,MacIntel,60.24096386,,,,,28.8835,30.8746,n,1,30.8758,30.8772,,0,,,30.8779,30.8797,,30.8803,30.8816,,0,8,8,8,1,cvmt/sample/s9.jpg,n,1.4622,,,,,,,,,,,,,,,,,,,,,,,
,,117393,180,1,2024-03-07_21h47.59.889,Memory and Syntax,2023.2.3,MacIntel,60.24096386,,,,,30.8836,32.8746,n,1,32.8758,32.8773,,0,,,32.8779,32.8794,,32.8799,32.881,,0,9,9,9,1,cvmt/sample/s10.jpg,n,1.5012,,,,,,,,,,,,,,,,,,,,,,,
,,117393,180,1,2024-03-07_21h47.59.889,Memory and Syntax,2023.2.3,MacIntel,60.24096386,,,,,32.8832,34.8742,,0,34.875,39.3242,o,1,4.431,,39.3251,39.3355,,39.336,39.3377,,0,10,10,10,1,cvmt/sample/s11.jpg,o,,,,,,,,,,,,,,,,,,,,,,,,
,,117393,180,1,2024-03-07_21h47.59.889,Memory and Syntax,2023.2.3,MacIntel,60.24096386,,,39.3409,46.24,46.2617,48.2567,,0,48.2568,49.256,n,1,0.9927,,49.256,49.2565,,49.2565,49.2567,,0,0,0,0,1,cvmt/test_items/t1.jpeg,n,,,,,,,,,,,,,,,,,,,,,,,,
,,117393,180,1,2024-03-07_21h47.59.889,Memory and Syntax,2023.2.3,MacIntel,60.24096386,,,,,49.2571,51.2566,n,1,51.2567,51.2569,,0,,,51.2569,51.2574,,51.2574,51.2575,,0,1,1,1,1,cvmt/test_items/t2.jpeg,n,1.7515,,,,,,,,,,,,,,,,,,,,,,,
,,117393,180,1,2024-03-07_21h47.59.889,Memory and Syntax,2023.2.3,MacIntel,60.24096386,,,,,51.2577,53.2568,n,0,53.2569,53.2572,,0,,,53.2572,53.2579,,53.2579,53.2581,,0,2,2,2,1,cvmt/test_items/t3.jpeg,o,1.3758,,,,,,,,,,,,,,,,,,,,,,,
,,117393,180,1,2024-03-07_21h47.59.889,Memory and Syntax,2023.2.3,MacIntel,60.24096386,,,,,53.2584,55.2568,n,0,55.2568,55.2571,,0,,,55.2571,55.2576,,55.2576,55.2578,,0,3,3,3,1,cvmt/test_items/t4.jpeg,o,1.0928,,,,,,,,,,,,,,,,,,,,,,,
,,117393,180,1,2024-03-07_21h47.59.889,Memory and Syntax,2023.2.3,MacIntel,60.24096386,,,,,55.2581,57.2567,n,0,57.2568,57.257,,0,,,57.257,57.2576,,57.2576,57.2577,,0,4,4,4,1,cvmt/test_items/t5.jpeg,o,1.3324,,,,,,,,,,,,,,,,,,,,,,,
,,117393,180,1,2024-03-07_21h47.59.889,Memory and Syntax,2023.2.3,MacIntel,60.24096386,,,,,57.2581,59.2568,n,0,59.2568,59.2571,,0,,,59.2571,59.2576,,59.2576,59.2578,,0,5,5,5,1,cvmt/test_items/t6.jpeg,o,1.4637,,,,,,,,,,,,,,,,,,,,,,,
,,117393,180,1,2024-03-07_21h47.59.889,Memory and Syntax,2023.2.3,MacIntel,60.24096386,,,,,59.2581,61.2567,n,0,61.2568,61.2571,,0,,,61.2572,61.2577,,61.2577,61.258,,0,6,6,6,1,cvmt/test_items/t7.jpeg,o,1.3211,,,,,,,,,,,,,,,,,,,,,,,
,,117393,180,1,2024-03-07_21h47.59.889,Memory and Syntax,2023.2.3,MacIntel,60.24096386,,,,,61.2584,63.257,n,0,63.2571,63.2573,,0,,,63.2573,63.2579,,63.2579,63.258,,0,7,7,7,1,cvmt/test_items/t8.jpeg,o,1.2312,,,,,,,,,,,,,,,,,,,,,,,
,,117393,180,1,2024-03-07_21h47.59.889,Memory and Syntax,2023.2.3,MacIntel,60.24096386,,,,,63.2584,65.2568,n,0,65.2569,65.2571,,0,,,65.2572,65.2578,,65.2579,65.2579,,0,8,8,8,1,cvmt/test_items/t9.jpeg,o,1.5654,,,,,,,,,,,,,,,,,,,,,,,
,,117393,180,1,2024-03-07_21h47.59.889,Memory and Syntax,2023.2.3,MacIntel,60.24096386,,,,,65.2583,67.2568,,0,67.2568,71.1067,n,0,3.8363,,71.1068,71.1164,,71.1165,71.1165,,0,9,9,9,1,cvmt/test_items/t10.jpeg,o,,,,,,,,,,,,,,,,,,,,,,,,
,,117393,180,1,2024-03-07_21h47.59.889,Memory and Syntax,2023.2.3,MacIntel,60.24096386,,,,,71.1166,73.1069,n,1,73.1069,73.1094,,0,,,73.1094,73.1099,,73.1099,73.11,,0,10,10,10,1,cvmt/test_items/t11.jpeg,n,1.4753,,,,,,,,,,,,,,,,,,,,,,,
,,117393,180,1,2024-03-07_21h47.59.889,Memory and Syntax,2023.2.3,MacIntel,60.24096386,,,,,73.1102,75.107,,0,75.1071,76.7907,n,0,1.6782,,76.7908,76.8,,76.8,76.8001,,0,11,11,11,1,cvmt/test_items/t12.jpeg,o,,,,,,,,,,,,,,,,,,,,,,,,
,,117393,180,1,2024-03-07_21h47.59.889,Memory and Syntax,2023.2.3,MacIntel,60.24096386,,,,,76.8003,78.7901,o,1,78.7902,78.7928,,0,,,78.7928,78.7933,,78.7933,78.7934,,0,12,12,12,1,cvmt/test_items/t13.jpeg,o,1.4907,,,,,,,,,,,,,,,,,,,,,,,
,,117393,180,1,2024-03-07_21h47.59.889,Memory and Syntax,2023.2.3,MacIntel,60.24096386,,,,,78.7936,80.79,n,0,80.7901,80.7903,,0,,,80.7904,80.7909,,80.7909,80.791,,0,13,13,13,1,cvmt/test_items/t14.jpeg,o,0.9495,,,,,,,,,,,,,,,,,,,,,,,
,,117393,180,1,2024-03-07_21h47.59.889,Memory and Syntax,2023.2.3,MacIntel,60.24096386,,,,,80.7913,82.7901,o,1,82.7902,82.7906,,0,,,82.7906,82.7912,,82.7912,82.7913,,0,14,14,14,1,cvmt/test_items/t15.jpeg,o,1.1259,,,,,,,,,,,,,,,,,,,,,,,
,,117393,180,1,2024-03-07_21h47.59.889,Memory and Syntax,2023.2.3,MacIntel,60.24096386,,,,,82.7916,84.7901,o,1,84.7901,84.7904,,0,,,84.7904,84.7909,,84.791,84.7911,,0,15,15,15,1,cvmt/test_items/t16.jpeg,o,1.0623,,,,,,,,,,,,,,,,,,,,,,,
,,117393,180,1,2024-03-07_21h47.59.889,Memory and Syntax,2023.2.3,MacIntel,60.24096386,,,,,84.7914,86.7901,,0,86.7902,105.7899,n,0,18.9831,,105.79,105.7993,,105.7993,105.7995,,0,16,16,16,1,cvmt/test_items/t17.jpeg,o,,,,,,,,,,,,,,,,,,,,,,,,
,,117393,180,1,2024-03-07_21h47.59.889,Memory and Syntax,2023.2.3,MacIntel,60.24096386,,,,,105.7996,107.7901,o,1,107.7901,107.7927,,0,,,107.7928,107.7932,,107.7932,107.7932,,0,17,17,17,1,cvmt/test_items/t18.jpeg,o,1.8724,,,,,,,,,,,,,,,,,,,,,,,
,,117393,180,1,2024-03-07_21h47.59.889,Memory and Syntax,2023.2.3,MacIntel,60.24096386,,,,,107.7935,109.7896,n,1,109.7897,109.7898,,0,,,109.7899,109.7902,,109.7902,109.7902,,0,18,18,18,1,cvmt/test_items/t19.jpeg,n,1.4722,,,,,,,,,,,,,,,,,,,,,,,
,,117393,180,1,2024-03-07_21h47.59.889,Memory and Syntax,2023.2.3,MacIntel,60.24096386,,,,,109.7905,111.79,n,0,111.79,111.7903,,0,,,111.7904,111.791,,111.791,111.7911,,0,19,19,19,1,cvmt/test_items/t20.jpeg,o,0.9658,,,,,,,,,,,,,,,,,,,,,,,
,,117393,180,1,2024-03-07_21h47.59.889,Memory and Syntax,2023.2.3,MacIntel,60.24096386,,,,,111.7914,113.79,,0,113.7901,114.5734,o,1,0.7661,,114.5734,114.583,,114.583,114.583,,0,20,20,20,1,cvmt/test_items/t21.jpeg,o,,,,,,,,,,,,,,,,,,,,,,,,
,,117393,180,1,2024-03-07_21h47.59.889,Memory and Syntax,2023.2.3,MacIntel,60.24096386,,,,,114.5833,116.5732,o,1,116.5733,116.5745,,0,,,116.5745,116.575,,116.575,116.575,,0,21,21,21,1,cvmt/test_items/t22.jpeg,o,1.3285,,,,,,,,,,,,,,,,,,,,,,,
,,117393,180,1,2024-03-07_21h47.59.889,Memory and Syntax,2023.2.3,MacIntel,60.24096386,,,,,116.5752,118.5732,,0,118.5733,119.14,n,1,0.5495,,119.1401,119.1407,,119.1407,119.1408,,0,22,22,22,1,cvmt/test_items/t23.jpeg,n,,,,,,,,,,,,,,,,,,,,,,,,
,,117393,180,1,2024-03-07_21h47.59.889,Memory and Syntax,2023.2.3,MacIntel,60.24096386,,,,,119.1411,121.14,n,1,121.14,121.1403,,0,,,121.1403,121.141,,121.141,121.141,,0,23,23,23,1,cvmt/test_items/t24.jpeg,n,1.0707,,,,,,,,,,,,,,,,,,,,,,,
,,117393,180,1,2024-03-07_21h47.59.889,Memory and Syntax,2023.2.3,MacIntel,60.24096386,,,,,121.1414,123.14,o,1,123.14,123.1402,,0,,,123.1402,123.1407,,123.1407,123.1408,,0,24,24,24,1,cvmt/test_items/t25.jpeg,o,1.0555,,,,,,,,,,,,,,,,,,,,,,,
,,117393,180,1,2024-03-07_21h47.59.889,Memory and Syntax,2023.2.3,MacIntel,60.24096386,,,,,123.141,125.1399,,0,125.1399,125.7566,n,1,0.6009,,125.7566,125.7573,,125.7573,125.7573,,0,25,25,25,1,cvmt/test_items/t26.jpeg,n,,,,,,,,,,,,,,,,,,,,,,,,
,,117393,180,1,2024-03-07_21h47.59.889,Memory and Syntax,2023.2.3,MacIntel,60.24096386,,,,,125.7577,127.7566,o,1,127.7567,127.7569,,0,,,127.757,127.7575,,127.7575,127.7576,,0,26,26,26,1,cvmt/test_items/t27.jpeg,o,0.8637,,,,,,,,,,,,,,,,,,,,,,,
,,117393,180,1,2024-03-07_21h47.59.889,Memory and Syntax,2023.2.3,MacIntel,60.24096386,,,,,127.7579,129.7566,n,1,129.7566,129.7569,,0,,,129.7569,129.7575,,129.7575,129.7576,,0,27,27,27,1,cvmt/test_items/t28.jpeg,n,0.8173,,,,,,,,,,,,,,,,,,,,,,,
,,117393,180,1,2024-03-07_21h47.59.889,Memory and Syntax,2023.2.3,MacIntel,60.24096386,,,,,129.758,131.7567,n,1,131.7567,131.757,,0,,,131.757,131.7576,,131.7576,131.7577,,0,28,28,28,1,cvmt/test_items/t29.jpeg,n,1.4284,,,,,,,,,,,,,,,,,,,,,,,
,,117393,180,1,2024-03-07_21h47.59.889,Memory and Syntax,2023.2.3,MacIntel,60.24096386,,,,,131.7581,133.7567,o,1,133.7568,133.7572,,0,,,133.7572,133.7578,,133.7578,133.7579,,0,29,29,29,1,cvmt/test_items/t30.jpeg,o,1.1444,,,,,,,,,,,,,,,,,,,,,,,
,,117393,180,1,2024-03-07_21h47.59.889,Memory and Syntax,2023.2.3,MacIntel,60.24096386,,,,,133.7582,135.7566,,0,135.7567,165.4065,n,0,29.6428,,165.4066,165.416,,165.4161,165.4161,,0,30,30,30,1,cvmt/test_items/t31.jpeg,o,,,,,,,,,,,,,,,,,,,,,,,,
,,117393,180,1,2024-03-07_21h47.59.889,Memory and Syntax,2023.2.3,MacIntel,60.24096386,,,,,165.4164,167.4067,,0,167.4068,168.0898,n,1,0.6745,,168.0899,168.0904,,168.0904,168.0905,,0,31,31,31,1,cvmt/test_items/t32.jpeg,n,,,,,,,,,,,,,,,,,,,,,,,,
,,117393,180,1,2024-03-07_21h47.59.889,Memory and Syntax,2023.2.3,MacIntel,60.24096386,,,,,168.0907,170.0898,n,1,170.0899,170.0913,,0,,,170.0913,170.0917,,170.0918,170.0918,,0,32,32,32,1,cvmt/test_items/t33.jpeg,n,1.446,,,,,,,,,,,,,,,,,,,,,,,
,,117393,180,1,2024-03-07_21h47.59.889,Memory and Syntax,2023.2.3,MacIntel,60.24096386,,,,,170.0921,172.0899,o,1,172.09,172.0903,,0,,,172.0903,172.091,,172.091,172.0911,,0,33,33,33,1,cvmt/test_items/t34.jpeg,o,0.8638,,,,,,,,,,,,,,,,,,,,,,,
,,117393,180,1,2024-03-07_21h47.59.889,Memory and Syntax,2023.2.3,MacIntel,60.24096386,,,,,172.0916,174.0898,n,1,174.0899,174.0902,,0,,,174.0903,174.0908,,174.0908,174.0909,,0,34,34,34,1,cvmt/test_items/t35.jpeg,n,0.9465,,,,,,,,,,,,,,,,,,,,,,,
,,117393,180,1,2024-03-07_21h47.59.889,Memory and Syntax,2023.2.3,MacIntel,60.24096386,,,,,174.0913,176.09,o,1,176.09,176.0902,,0,,,176.0902,176.0908,,176.0908,176.0909,,0,35,35,35,1,cvmt/test_items/t36.jpeg,o,0.7635,,,,,,,,,,,,,,,,,,,,,,,
,,117393,180,1,2024-03-07_21h47.59.889,Memory and Syntax,2023.2.3,MacIntel,60.24096386,,,,,176.0912,178.0899,n,1,178.0899,178.0902,,0,,,178.0903,178.0907,,178.0908,178.0908,,0,36,36,36,1,cvmt/test_items/t37.jpeg,n,0.9323,,,,,,,,,,,,,,,,,,,,,,,
,,117393,180,1,2024-03-07_21h47.59.889,Memory and Syntax,2023.2.3,MacIntel,60.24096386,,,,,178.0912,180.0895,o,1,180.0895,180.0898,,0,,,180.0898,180.09,,180.09,180.09,,0,37,37,37,1,cvmt/test_items/t38.jpeg,o,0.7787,,,,,,,,,,,,,,,,,,,,,,,
,,117393,180,1,2024-03-07_21h47.59.889,Memory and Syntax,2023.2.3,MacIntel,60.24096386,,,,,180.0901,182.0902,n,1,182.0903,182.0906,,0,,,182.0906,182.0911,,182.0911,182.0912,,0,38,38,38,1,cvmt/test_items/t39.jpeg,n,0.7066,,,,,,,,,,,,,,,,,,,,,,,
,,117393,180,1,2024-03-07_21h47.59.889,Memory and Syntax,2023.2.3,MacIntel,60.24096386,,,,,182.0916,184.09,n,0,184.0901,184.0903,,0,,,184.0904,184.091,,184.091,184.0911,,0,39,39,39,1,cvmt/test_items/t40.jpeg,o,0.7821,,,,,,,,,,,,,,,,,,,,,,,
,,117393,180,1,2024-03-07_21h47.59.889,Memory and Syntax,2023.2.3,MacIntel,60.24096386,,,,,184.0914,186.09,n,1,186.09,186.0903,,0,,,186.0903,186.091,,186.091,186.0911,,0,40,40,40,1,cvmt/test_items/t41.jpeg,n,0.7662,,,,,,,,,,,,,,,,,,,,,,,
,,117393,180,1,2024-03-07_21h47.59.889,Memory and Syntax,2023.2.3,MacIntel,60.24096386,,,,,186.0915,188.0898,o,1,188.0898,188.0899,,0,,,188.09,188.0904,,188.0904,188.0905,,0,41,41,41,1,cvmt/test_items/t42.jpeg,o,0.8602,,,,,,,,,,,,,,,,,,,,,,,
,,117393,180,1,2024-03-07_21h47.59.889,Memory and Syntax,2023.2.3,MacIntel,60.24096386,,,,,188.0907,190.0894,o,1,190.0894,190.0894,,0,,,190.0894,190.0897,,190.0897,190.0897,,0,42,42,42,1,cvmt/test_items/t43.jpeg,o,0.8839,,,,,,,,,,,,,,,,,,,,,,,
,,117393,180,1,2024-03-07_21h47.59.889,Memory and Syntax,2023.2.3,MacIntel,60.24096386,,,,,190.0897,192.0899,n,1,192.0899,192.0901,,0,,,192.0902,192.0907,,192.0908,192.0909,,0,43,43,43,1,cvmt/test_items/t44.jpeg,n,1.5735,,,,,,,,,,,,,,,,,,,,,,,
,,117393,180,1,2024-03-07_21h47.59.889,Memory and Syntax,2023.2.3,MacIntel,60.24096386,,,,,192.0912,194.0899,n,0,194.0899,194.0902,,0,,,194.0903,194.0907,,194.0908,194.0909,,0,44,44,44,1,cvmt/test_items/t45.jpeg,o,1.2632,,,,,,,,,,,,,,,,,,,,,,,
,,117393,180,1,2024-03-07_21h47.59.889,Memory and Syntax,2023.2.3,MacIntel,60.24096386,,,,,194.0911,196.0899,o,1,196.09,196.0902,,0,,,196.0903,196.0909,,196.0909,196.091,,0,45,45,45,1,cvmt/test_items/t46.jpeg,o,0.8787,,,,,,,,,,,,,,,,,,,,,,,
,,117393,180,1,2024-03-07_21h47.59.889,Memory and Syntax,2023.2.3,MacIntel,60.24096386,,,,,196.0913,198.0898,n,0,198.0899,198.0901,,0,,,198.0902,198.0906,,198.0907,198.0908,,0,46,46,46,1,cvmt/test_items/t47.jpeg,o,1.1086,,,,,,,,,,,,,,,,,,,,,,,
,,117393,180,1,2024-03-07_21h47.59.889,Memory and Syntax,2023.2.3,MacIntel,60.24096386,,,,,198.0911,200.0898,n,1,200.0898,200.0901,,0,,,200.0901,200.0905,,200.0905,200.0906,,0,47,47,47,1,cvmt/test_items/t48.jpeg,n,1.5003,,,,,,,,,,,,,,,,,,,,,,,
,,117393,180,1,2024-03-07_21h47.59.889,Memory and Syntax,2023.2.3,MacIntel,60.24096386,,,,,200.0909,202.0899,o,1,202.09,202.0902,,0,,,202.0903,202.0907,,202.0908,202.0908,,0,48,48,48,1,cvmt/test_items/t49.jpeg,o,0.8772,,,,,,,,,,,,,,,,,,,,,,,
,,117393,180,1,2024-03-07_21h47.59.889,Memory and Syntax,2023.2.3,MacIntel,60.24096386,,,,,202.0912,204.09,n,0,204.09,204.0903,,0,,,204.0903,204.0908,,204.0908,204.0909,,0,49,49,49,1,cvmt/test_items/t50.jpeg,o,1.0292,,,,,,,,,,,,,,,,,,,,,,,
,,117393,180,1,2024-03-07_21h47.59.889,Memory and Syntax,2023.2.3,MacIntel,60.24096386,,,,,204.0913,206.0899,n,1,206.09,206.0902,,0,,,206.0902,206.0907,,206.0907,206.0908,,0,50,50,50,1,cvmt/test_items/t51.jpeg,n,1.0453,,,,,,,,,,,,,,,,,,,,,,,
,,117393,180,1,2024-03-07_21h47.59.889,Memory and Syntax,2023.2.3,MacIntel,60.24096386,,,,,206.0912,208.0899,o,1,208.0899,208.0901,,0,,,208.0901,208.0907,,208.0907,208.0907,,0,51,51,51,1,cvmt/test_items/t52.jpeg,o,0.8747,,,,,,,,,,,,,,,,,,,,,,,
,,117393,180,1,2024-03-07_21h47.59.889,Memory and Syntax,2023.2.3,MacIntel,60.24096386,,,,,208.0911,210.0898,o,1,210.0899,210.0902,,0,,,210.0902,210.0907,,210.0907,210.0908,,0,52,52,52,1,cvmt/test_items/t53.jpeg,o,1.0805,,,,,,,,,,,,,,,,,,,,,,,
,,117393,180,1,2024-03-07_21h47.59.889,Memory and Syntax,2023.2.3,MacIntel,60.24096386,,,,,210.0911,212.09,n,0,212.0901,212.0903,,0,,,212.0903,212.0909,,212.091,212.091,,0,53,53,53,1,cvmt/test_items/t54.jpeg,o,0.9198,,,,,,,,,,,,,,,,,,,,,,,
,,117393,180,1,2024-03-07_21h47.59.889,Memory and Syntax,2023.2.3,MacIntel,60.24096386,,,,,212.0913,214.0899,o,1,214.09,214.0902,,0,,,214.0902,214.0907,,214.0908,214.0909,,0,54,54,54,1,cvmt/test_items/t55.jpeg,o,1.062,,,,,,,,,,,,,,,,,,,,,,,
,,117393,180,1,2024-03-07_21h47.59.889,Memory and Syntax,2023.2.3,MacIntel,60.24096386,,,,,214.0912,216.0898,n,0,216.0899,216.0902,,0,,,216.0902,216.0907,,216.0907,216.0908,,0,55,55,55,1,cvmt/test_items/t56.jpeg,o,0.8334,,,,,,,,,,,,,,,,,,,,,,,
,,117393,180,1,2024-03-07_21h47.59.889,Memory and Syntax,2023.2.3,MacIntel,60.24096386,,,,,216.0912,218.09,o,1,218.09,218.0903,,0,,,218.0903,218.091,,218.091,218.0911,,0,56,56,56,1,cvmt/test_items/t57.jpeg,o,0.6904,,,,,,,,,,,,,,,,,,,,,,,
,,117393,180,1,2024-03-07_21h47.59.889,Memory and Syntax,2023.2.3,MacIntel,60.24096386,,,,,218.0914,220.0898,n,1,220.09,220.0901,,0,,,220.0902,220.0907,,220.0907,220.0908,,0,57,57,57,1,cvmt/test_items/t58.jpeg,n,0.9745,,,,,,,,,,,,,,,,,,,,,,,
,,117393,180,1,2024-03-07_21h47.59.889,Memory and Syntax,2023.2.3,MacIntel,60.24096386,,,,,220.0911,222.0899,n,1,222.09,222.0903,,0,,,222.0903,222.0908,,222.0908,222.0908,,0,58,58,58,1,cvmt/test_items/t59.jpeg,n,0.9501,,,,,,,,,,,,,,,,,,,,,,,
,,117393,180,1,2024-03-07_21h47.59.889,Memory and Syntax,2023.2.3,MacIntel,60.24096386,,,,,222.0912,224.0899,n,0,224.09,224.0903,,0,,,224.0904,224.0908,,224.0908,224.0909,,0,59,59,59,1,cvmt/test_items/t60.jpeg,o,1.417,,,,,,,,,,,,,,,,,,,,,,,
,,117393,180,1,2024-03-07_21h47.59.889,Memory and Syntax,2023.2.3,MacIntel,60.24096386,,,,,224.0913,226.0899,n,0,226.09,226.0901,,0,,,226.0902,226.0907,,226.0908,226.0909,,0,60,60,60,1,cvmt/test_items/t61.jpeg,o,0.9489,,,,,,,,,,,,,,,,,,,,,,,
,,117393,180,1,2024-03-07_21h47.59.889,Memory and Syntax,2023.2.3,MacIntel,60.24096386,,,,,226.0912,228.0899,o,1,228.0899,228.0902,,0,,,228.0902,228.0907,,228.0907,228.0908,,0,61,61,61,1,cvmt/test_items/t62.jpeg,o,0.8825,,,,,,,,,,,,,,,,,,,,,,,
,,117393,180,1,2024-03-07_21h47.59.889,Memory and Syntax,2023.2.3,MacIntel,60.24096386,,,,,228.0911,230.0899,n,0,230.09,230.0902,,0,,,230.0903,230.0911,,230.0912,230.0912,,0,62,62,62,1,cvmt/test_items/t63.jpeg,o,0.7483,,,,,,,,,,,,,,,,,,,,,,,
,,117393,180,1,2024-03-07_21h47.59.889,Memory and Syntax,2023.2.3,MacIntel,60.24096386,,,,,230.0916,232.0899,n,0,232.0899,232.0902,,0,,,232.0902,232.0908,,232.0908,232.0909,,0,63,63,63,1,cvmt/test_items/t64.jpeg,o,0.9065,,,,,,,,,,,,,,,,,,,,,,,
,,117393,180,1,2024-03-07_21h47.59.889,Memory and Syntax,2023.2.3,MacIntel,60.24096386,,,,,232.0912,234.0898,o,1,234.0899,234.0901,,0,,,234.0901,234.0906,,234.0907,234.0907,,0,64,64,64,1,cvmt/test_items/t65.jpeg,o,0.8101,,,,,,,,,,,,,,,,,,,,,,,
,,117393,180,1,2024-03-07_21h47.59.889,Memory and Syntax,2023.2.3,MacIntel,60.24096386,,,,,234.091,236.09,n,0,236.09,236.0903,,0,,,236.0904,236.0909,,236.091,236.0911,,0,65,65,65,1,cvmt/test_items/t66.jpeg,o,0.845,,,,,,,,,,,,,,,,,,,,,,,
,,117393,180,1,2024-03-07_21h47.59.889,Memory and Syntax,2023.2.3,MacIntel,60.24096386,,,,,236.0915,238.0898,n,1,238.0898,238.0901,,0,,,238.0901,238.0906,,238.0906,238.0906,,0,66,66,66,1,cvmt/test_items/t67.jpeg,n,0.8998,,,,,,,,,,,,,,,,,,,,,,,
,,117393,180,1,2024-03-07_21h47.59.889,Memory and Syntax,2023.2.3,MacIntel,60.24096386,,,,,238.091,240.0901,n,0,240.0902,240.0905,,0,,,240.0905,240.0912,,240.0912,240.0913,,0,67,67,67,1,cvmt/test_items/t68.jpeg,o,0.8817,,,,,,,,,,,,,,,,,,,,,,,
,,117393,180,1,2024-03-07_21h47.59.889,Memory and Syntax,2023.2.3,MacIntel,60.24096386,,,,,240.0916,242.0897,n,0,242.0899,242.09,,0,,,242.0901,242.0906,,242.0906,242.0907,,0,68,68,68,1,cvmt/test_items/t69.jpeg,o,0.8309,,,,,,,,,,,,,,,,,,,,,,,
,,117393,180,1,2024-03-07_21h47.59.889,Memory and Syntax,2023.2.3,MacIntel,60.24096386,,,,,242.0911,244.0898,o,1,244.0899,244.0901,,0,,,244.0902,244.0908,,244.0908,244.0909,,0,69,69,69,1,cvmt/test_items/t70.jpeg,o,1.2939,,,,,,,,,,,,,,,,,,,,,,,
,,117393,180,1,2024-03-07_21h47.59.889,Memory and Syntax,2023.2.3,MacIntel,60.24096386,,,,,244.0912,246.0899,o,0,246.09,246.0902,,0,,,246.0903,246.0908,,246.0908,246.0909,,0,70,70,70,1,cvmt/test_items/t71.jpeg,n,0.7801,,,,,,,,,,,,,,,,,,,,,,,
,,117393,180,1,2024-03-07_21h47.59.889,Memory and Syntax,2023.2.3,MacIntel,60.24096386,,,,,246.0912,248.0898,o,1,248.0899,248.0901,,0,,,248.0901,248.0907,,248.0907,248.0908,,0,71,71,71,1,cvmt/test_items/t72.jpeg,o,0.6495,,,,,,,,,,,,,,,,,,,,,,,
,,117393,180,1,2024-03-07_21h47.59.889,Memory and Syntax,2023.2.3,MacIntel,60.24096386,,,,,248.0911,250.0898,o,1,250.0899,250.09,,0,,,250.0901,250.0908,,250.0908,250.0909,,0,72,72,72,1,cvmt/test_items/t73.jpeg,o,1.1151,,,,,,,,,,,,,,,,,,,,,,,
,,117393,180,1,2024-03-07_21h47.59.889,Memory and Syntax,2023.2.3,MacIntel,60.24096386,,,,,250.0912,252.0889,n,0,252.089,252.0892,,0,,,252.0892,252.0897,,252.0898,252.0898,,0,73,73,73,1,cvmt/test_items/t74.jpeg,o,1.2846,,,,,,,,,,,,,,,,,,,,,,,
,,117393,180,1,2024-03-07_21h47.59.889,Memory and Syntax,2023.2.3,MacIntel,60.24096386,,,,,252.0901,254.0889,n,0,254.0889,254.0892,,0,,,254.0893,254.0898,,254.0898,254.0899,,0,74,74,74,1,cvmt/test_items/t75.jpeg,o,1.4332,,,,,,,,,,,,,,,,,,,,,,,
,,117393,180,1,2024-03-07_21h47.59.889,Memory and Syntax,2023.2.3,MacIntel,60.24096386,,,,,254.0902,256.0898,o,1,256.0899,256.0901,,0,,,256.0901,256.0907,,256.0907,256.0908,,0,75,75,75,1,cvmt/test_items/t76.jpeg,o,1.0976,,,,,,,,,,,,,,,,,,,,,,,
,,117393,180,1,2024-03-07_21h47.59.889,Memory and Syntax,2023.2.3,MacIntel,60.24096386,,,,,256.0911,258.0898,n,0,258.0899,258.0901,,0,,,258.0901,258.0907,,258.0907,258.0908,,0,76,76,76,1,cvmt/test_items/t77.jpeg,o,1.2282,,,,,,,,,,,,,,,,,,,,,,,
,,117393,180,1,2024-03-07_21h47.59.889,Memory and Syntax,2023.2.3,MacIntel,60.24096386,,,,,258.0911,260.089,o,1,260.089,260.0892,,0,,,260.0892,260.0897,,260.0898,260.09,,0,77,77,77,1,cvmt/test_items/t78.jpeg,o,0.7661,,,,,,,,,,,,,,,,,,,,,,,
,,117393,180,1,2024-03-07_21h47.59.889,Memory and Syntax,2023.2.3,MacIntel,60.24096386,,,,,260.0902,262.0898,n,0,262.0899,262.0901,,0,,,262.0901,262.0907,,262.0907,262.0908,,0,78,78,78,1,cvmt/test_items/t79.jpeg,o,0.6987,,,,,,,,,,,,,,,,,,,,,,,
,,117393,180,1,2024-03-07_21h47.59.889,Memory and Syntax,2023.2.3,MacIntel,60.24096386,,,,,262.0911,264.0898,n,1,264.0898,264.0901,,0,,,264.0901,264.0907,,264.0907,264.0908,,0,79,79,79,1,cvmt/test_items/t80.jpeg,n,1.2135,,,,,,,,,,,,,,,,,,,,,,,
,,117393,180,1,2024-03-07_21h47.59.889,Memory and Syntax,2023.2.3,MacIntel,60.24096386,,,,,264.0911,266.0898,n,0,266.0899,266.0902,,0,,,266.0903,266.0908,,266.0908,266.0909,,0,80,80,80,1,cvmt/test_items/t81.jpeg,o,0.9543,,,,,,,,,,,,,,,,,,,,,,,
,,117393,180,1,2024-03-07_21h47.59.889,Memory and Syntax,2023.2.3,MacIntel,60.24096386,,,,,266.0913,268.0897,o,1,268.0898,268.09,,0,,,268.0901,268.0905,,268.0905,268.0905,,0,81,81,81,1,cvmt/test_items/t82.jpeg,o,0.729,,,,,,,,,,,,,,,,,,,,,,,
,,117393,180,1,2024-03-07_21h47.59.889,Memory and Syntax,2023.2.3,MacIntel,60.24096386,,,,,268.0909,270.0899,n,0,270.0899,270.0903,,0,,,270.0903,270.0908,,270.0908,270.0909,,0,82,82,82,1,cvmt/test_items/t83.jpeg,o,0.8795,,,,,,,,,,,,,,,,,,,,,,,
,,117393,180,1,2024-03-07_21h47.59.889,Memory and Syntax,2023.2.3,MacIntel,60.24096386,,,,,270.0913,272.0897,o,1,272.0897,272.09,,0,,,272.09,272.0905,,272.0905,272.0906,,0,83,83,83,1,cvmt/test_items/t84.jpeg,o,0.6511,,,,,,,,,,,,,,,,,,,,,,,
,,117393,180,1,2024-03-07_21h47.59.889,Memory and Syntax,2023.2.3,MacIntel,60.24096386,,,,,272.0909,274.0898,o,1,274.0898,274.09,,0,,,274.09,274.0907,,274.0907,274.0909,,0,84,84,84,1,cvmt/test_items/t85.jpeg,o,1.0132,,,,,,,,,,,,,,,,,,,,,,,
,,117393,180,1,2024-03-07_21h47.59.889,Memory and Syntax,2023.2.3,MacIntel,60.24096386,,,,,274.0912,276.0897,o,1,276.0898,276.09,,0,,,276.09,276.0905,,276.0905,276.0906,,0,85,85,85,1,cvmt/test_items/t86.jpeg,o,0.7809,,,,,,,,,,,,,,,,,,,,,,,
,,117393,180,1,2024-03-07_21h47.59.889,Memory and Syntax,2023.2.3,MacIntel,60.24096386,,,,,276.0908,278.0898,n,0,278.0898,278.0901,,0,,,278.0901,278.0906,,278.0906,278.0908,,0,86,86,86,1,cvmt/test_items/t87.jpeg,o,1.0914,,,,,,,,,,,,,,,,,,,,,,,
,,117393,180,1,2024-03-07_21h47.59.889,Memory and Syntax,2023.2.3,MacIntel,60.24096386,,,,,278.091,280.0896,o,0,280.0897,280.0898,,0,,,280.0898,280.0902,,280.0902,280.0903,,0,87,87,87,1,cvmt/test_items/t88.jpeg,n,1.4188,,,,,,,,,,,,,,,,,,,,,,,
,,117393,180,1,2024-03-07_21h47.59.889,Memory and Syntax,2023.2.3,MacIntel,60.24096386,,,,,280.0905,282.0898,o,0,282.0898,282.09,,0,,,282.0901,282.0906,,282.0907,282.0908,,0,88,88,88,1,cvmt/test_items/t89.jpeg,n,0.9378,,,,,,,,,,,,,,,,,,,,,,,
,,117393,180,1,2024-03-07_21h47.59.889,Memory and Syntax,2023.2.3,MacIntel,60.24096386,,,,,282.091,284.0896,o,1,284.0897,284.0899,,0,,,284.0899,284.0903,,284.0903,284.0904,,0,89,89,89,1,cvmt/test_items/t90.jpeg,o,0.9239,,,,,,,,,,,,,,,,,,,,,,,
,,117393,180,1,2024-03-07_21h47.59.889,Memory and Syntax,2023.2.3,MacIntel,60.24096386,,,,,284.0906,286.0899,n,0,286.09,286.0903,,0,,,286.0904,286.0908,,286.0909,286.091,,0,90,90,90,1,cvmt/test_items/t91.jpeg,o,0.897,,,,,,,,,,,,,,,,,,,,,,,
,,117393,180,1,2024-03-07_21h47.59.889,Memory and Syntax,2023.2.3,MacIntel,60.24096386,,,,,286.0913,288.0896,n,0,288.0897,288.0899,,0,,,288.0899,288.0903,,288.0903,288.0904,,0,91,91,91,1,cvmt/test_items/t92.jpeg,o,0.914,,,,,,,,,,,,,,,,,,,,,,,
,,117393,180,1,2024-03-07_21h47.59.889,Memory and Syntax,2023.2.3,MacIntel,60.24096386,,,,,288.0906,290.0897,o,1,290.0898,290.0901,,0,,,290.0901,290.0905,,290.0905,290.0906,,0,92,92,92,1,cvmt/test_items/t93.jpeg,o,1.0691,,,,,,,,,,,,,,,,,,,,,,,
,,117393,180,1,2024-03-07_21h47.59.889,Memory and Syntax,2023.2.3,MacIntel,60.24096386,,,,,290.0908,292.0898,n,0,292.0899,292.0901,,0,,,292.0901,292.0907,,292.0908,292.0909,,0,93,93,93,1,cvmt/test_items/t94.jpeg,o,1.2041,,,,,,,,,,,,,,,,,,,,,,,
,,117393,180,1,2024-03-07_21h47.59.889,Memory and Syntax,2023.2.3,MacIntel,60.24096386,,,,,292.0912,294.0897,n,0,294.0898,294.0901,,0,,,294.0901,294.0906,,294.0906,294.0907,,0,94,94,94,1,cvmt/test_items/t95.jpeg,o,1.128,,,,,,,,,,,,,,,,,,,,,,,
,,117393,180,1,2024-03-07_21h47.59.889,Memory and Syntax,2023.2.3,MacIntel,60.24096386,,,,,294.0911,296.0898,o,1,296.0899,296.09,,0,,,296.0901,296.0906,,296.0907,296.0907,,0,95,95,95,1,cvmt/test_items/t96.jpeg,o,0.8464,,,,,,,,,,,,,,,,,,,,,,,
,,117393,180,1,2024-03-07_21h47.59.889,Memory and Syntax,2023.2.3,MacIntel,60.24096386,,,,,296.091,298.0898,o,1,298.0898,298.0901,,0,,,298.0901,298.0906,,298.0906,298.0908,,0,96,96,96,1,cvmt/test_items/t97.jpeg,o,1.2488,,,,,,,,,,,,,,,,,,,,,,,
,,117393,180,1,2024-03-07_21h47.59.889,Memory and Syntax,2023.2.3,MacIntel,60.24096386,,,,,298.0911,300.0897,n,1,300.0898,300.09,,0,,,300.0901,300.0906,,300.0906,300.0907,,0,97,97,97,1,cvmt/test_items/t98.jpeg,n,1.8902,,,,,,,,,,,,,,,,,,,,,,,
,,117393,180,1,2024-03-07_21h47.59.889,Memory and Syntax,2023.2.3,MacIntel,60.24096386,,,,,300.0911,302.0898,n,0,302.0898,302.09,,0,,,302.09,302.0905,,302.0905,302.0906,,0,98,98,98,1,cvmt/test_items/t99.jpeg,o,1.1319,,,,,,,,,,,,,,,,,,,,,,,
,,117393,180,1,2024-03-07_21h47.59.889,Memory and Syntax,2023.2.3,MacIntel,60.24096386,,,,,302.091,304.0898,o,1,304.0898,304.0901,,0,,,304.0902,304.0908,,304.0908,304.0908,,0,99,99,99,1,cvmt/test_items/t100.jpeg,o,0.6742,,,,,,,,,,,,,,,,,,,,,,,
,,117393,180,1,2024-03-07_21h47.59.889,Memory and Syntax,2023.2.3,MacIntel,60.24096386,,,,,304.0911,306.0896,o,1,306.0897,306.0899,,0,,,306.0899,306.0903,,306.0903,306.0903,,0,100,100,100,1,cvmt/test_items/t101.jpeg,o,0.8147,,,,,,,,,,,,,,,,,,,,,,,
,,117393,180,1,2024-03-07_21h47.59.889,Memory and Syntax,2023.2.3,MacIntel,60.24096386,,,,,306.0906,308.0898,o,1,308.0898,308.0902,,0,,,308.0902,308.0907,,308.0908,308.0909,,0,101,101,101,1,cvmt/test_items/t102.jpeg,o,0.6657,,,,,,,,,,,,,,,,,,,,,,,
,,117393,180,1,2024-03-07_21h47.59.889,Memory and Syntax,2023.2.3,MacIntel,60.24096386,,,,,308.0912,310.0898,n,0,310.0898,310.0901,,0,,,310.0901,310.0906,,310.0906,310.0907,,0,102,102,102,1,cvmt/test_items/t103.jpeg,o,0.9737,,,,,,,,,,,,,,,,,,,,,,,
,,117393,180,1,2024-03-07_21h47.59.889,Memory and Syntax,2023.2.3,MacIntel,60.24096386,,,,,310.091,312.0899,o,1,312.09,312.0901,,0,,,312.0902,312.0908,,312.0908,312.0908,,0,103,103,103,1,cvmt/test_items/t104.jpeg,o,0.6487,,,,,,,,,,,,,,,,,,,,,,,
,,117393,180,1,2024-03-07_21h47.59.889,Memory and Syntax,2023.2.3,MacIntel,60.24096386,,,,,312.0912,314.0897,n,1,314.0897,314.0899,,0,,,314.09,314.0906,,314.0907,314.0907,,0,104,104,104,1,cvmt/test_items/t105.jpeg,n,0.8911,,,,,,,,,,,,,,,,,,,,,,,
,,117393,180,1,2024-03-07_21h47.59.889,Memory and Syntax,2023.2.3,MacIntel,60.24096386,,,,,314.0912,316.0898,o,1,316.0898,316.09,,0,,,316.0901,316.0907,,316.0907,316.0907,,0,105,105,105,1,cvmt/test_items/t106.jpeg,o,0.867,,,,,,,,,,,,,,,,,,,,,,,
,,117393,180,1,2024-03-07_21h47.59.889,Memory and Syntax,2023.2.3,MacIntel,60.24096386,,,,,316.0911,318.0896,o,1,318.0897,318.09,,0,,,318.09,318.0904,,318.0904,318.0905,,0,106,106,106,1,cvmt/test_items/t107.jpeg,o,0.7315,,,,,,,,,,,,,,,,,,,,,,,
,,117393,180,1,2024-03-07_21h47.59.889,Memory and Syntax,2023.2.3,MacIntel,60.24096386,,,,,318.0909,320.0898,n,0,320.0898,320.0901,,0,,,320.0902,320.0907,,320.0907,320.0908,,0,107,107,107,1,cvmt/test_items/t108.jpeg,o,0.9973,,,,,,,,,,,,,,,,,,,,,,,
,,117393,180,1,2024-03-07_21h47.59.889,Memory and Syntax,2023.2.3,MacIntel,60.24096386,,,,,320.0911,322.0897,n,0,322.0897,322.0901,,0,,,322.0901,322.0906,,322.0906,322.0906,,0,108,108,108,1,cvmt/test_items/t109.jpeg,o,1.0377,,,,,,,,,,,,,,,,,,,,,,,
,,117393,180,1,2024-03-07_21h47.59.889,Memory and Syntax,2023.2.3,MacIntel,60.24096386,,,,,322.091,324.0897,o,1,324.0897,324.09,,0,,,324.09,324.0905,,324.0905,324.0907,,0,109,109,109,1,cvmt/test_items/t110.jpeg,o,0.9654,,,,,,,,,,,,,,,,,,,,,,,
,,117393,180,1,2024-03-07_21h47.59.889,Memory and Syntax,2023.2.3,MacIntel,60.24096386,,,,,324.091,326.0897,o,1,326.0897,326.0901,,0,,,326.0901,326.0906,,326.0906,326.0907,,0,110,110,110,1,cvmt/test_items/t111.jpeg,o,0.6285,,,,,,,,,,,,,,,,,,,,,,,
,,117393,180,1,2024-03-07_21h47.59.889,Memory and Syntax,2023.2.3,MacIntel,60.24096386,,,,,326.0911,328.0896,n,0,328.0897,328.09,,0,,,328.09,328.0906,,328.0906,328.0906,,0,111,111,111,1,cvmt/test_items/t112.jpeg,o,0.8848,,,,,,,,,,,,,,,,,,,,,,,
,,117393,180,1,2024-03-07_21h47.59.889,Memory and Syntax,2023.2.3,MacIntel,60.24096386,,,,,328.091,330.0897,o,0,330.0898,330.09,,0,,,330.09,330.0906,,330.0906,330.0907,,0,112,112,112,1,cvmt/test_items/t113.jpeg,n,0.8858,,,,,,,,,,,,,,,,,,,,,,,
,,117393,180,1,2024-03-07_21h47.59.889,Memory and Syntax,2023.2.3,MacIntel,60.24096386,,,,,330.0911,332.0898,n,0,332.0899,332.0901,,0,,,332.0901,332.0907,,332.0907,332.0909,,0,113,113,113,1,cvmt/test_items/t114.jpeg,o,0.9963,,,,,,,,,,,,,,,,,,,,,,,
,,117393,180,1,2024-03-07_21h47.59.889,Memory and Syntax,2023.2.3,MacIntel,60.24096386,,,,,332.0912,334.0897,,0,334.0897,334.273,n,0,0.1681,,334.273,334.2736,,334.2736,334.2737,,0,114,114,114,1,cvmt/test_items/t115.jpeg,o,,,,,,,,,,,,,,,,,,,,,,,,
,,117393,180,1,2024-03-07_21h47.59.889,Memory and Syntax,2023.2.3,MacIntel,60.24096386,,,,,334.274,336.2731,,0,336.2731,340.1064,n,0,3.8161,,340.1064,340.1159,,340.1159,340.116,,0,115,115,115,1,cvmt/test_items/t116.jpeg,o,,,,,,,,,,,,,,,,,,,,,,,,
,,117393,180,1,2024-03-07_21h47.59.889,Memory and Syntax,2023.2.3,MacIntel,60.24096386,,,,,340.1163,342.1064,,0,342.1065,345.4231,o,1,3.2983,,345.4232,345.4331,,345.4331,345.4331,,0,116,116,116,1,cvmt/test_items/t117.jpeg,o,,,,,,,,,,,,,,,,,,,,,,,,
,,117393,180,1,2024-03-07_21h47.59.889,Memory and Syntax,2023.2.3,MacIntel,60.24096386,,,,,345.4333,347.423,,0,347.423,348.3229,n,0,0.8924,,348.3229,348.3322,,348.3322,348.3323,,0,117,117,117,1,cvmt/test_items/t118.jpeg,o,,,,,,,,,,,,,,,,,,,,,,,,
,,117393,180,1,2024-03-07_21h47.59.889,Memory and Syntax,2023.2.3,MacIntel,60.24096386,,,,,348.3325,350.323,o,1,350.323,350.3252,,0,,,350.3252,350.3256,,350.3256,350.3257,,0,118,118,118,1,cvmt/test_items/t119.jpeg,o,0.8468,,,,,,,,,,,,,,,,,,,,,,,
,,117393,180,1,2024-03-07_21h47.59.889,Memory and Syntax,2023.2.3,MacIntel,60.24096386,,,,,350.3259,352.3229,,0,352.323,352.3232,,0,,,352.3232,352.3236,,352.3236,352.3238,,0,119,119,119,1,cvmt/test_items/t120.jpeg,o,,,,,,,,,,,,,,,,,,,,,,,,
,,117393,180,1,2024-03-07_21h47.59.889,Memory and Syntax,2023.2.3,MacIntel,60.24096386,,,,,352.3241,354.323,o,1,354.323,354.3232,,0,,,354.3232,354.3239,,354.3239,354.3239,,0,120,120,120,1,cvmt/test_items/t121.jpeg,o,0.0003,,,,,,,,,,,,,,,,,,,,,,,
,,117393,180,1,2024-03-07_21h47.59.889,Memory and Syntax,2023.2.3,MacIntel,60.24096386,,,,,354.3243,356.323,o,1,356.3231,356.3233,,0,,,356.3233,356.3239,,356.3239,356.324,,0,121,121,121,1,cvmt/test_items/t122.jpeg,o,0.6865,,,,,,,,,,,,,,,,,,,,,,,
,,117393,180,1,2024-03-07_21h47.59.889,Memory and Syntax,2023.2.3,MacIntel,60.24096386,,,,,356.3243,358.323,o,0,358.3231,358.3233,,0,,,358.3233,358.3239,,358.3239,358.324,,0,122,122,122,1,cvmt/test_items/t123.jpeg,n,1.057,,,,,,,,,,,,,,,,,,,,,,,
,,117393,180,1,2024-03-07_21h47.59.889,Memory and Syntax,2023.2.3,MacIntel,60.24096386,,,,,358.3244,360.323,n,0,360.3231,360.3233,,0,,,360.3233,360.3238,,360.3239,360.3239,,0,123,123,123,1,cvmt/test_items/t124.jpeg,o,1.3668,,,,,,,,,,,,,,,,,,,,,,,
,,117393,180,1,2024-03-07_21h47.59.889,Memory and Syntax,2023.2.3,MacIntel,60.24096386,,,,,360.3242,362.3229,o,1,362.323,362.3231,,0,,,362.3232,362.3235,,362.3236,362.3237,,0,124,124,124,1,cvmt/test_items/t125.jpeg,o,0.7135,,,,,,,,,,,,,,,,,,,,,,,
,,117393,180,1,2024-03-07_21h47.59.889,Memory and Syntax,2023.2.3,MacIntel,60.24096386,,,,,362.3239,364.323,n,0,364.3231,364.3233,,0,,,364.3234,364.3239,,364.3239,364.324,,0,125,125,125,1,cvmt/test_items/t126.jpeg,o,0.8133,,,,,,,,,,,,,,,,,,,,,,,
,,117393,180,1,2024-03-07_21h47.59.889,Memory and Syntax,2023.2.3,MacIntel,60.24096386,,,,,364.3244,366.323,o,1,366.323,366.3234,,0,,,366.3234,366.324,,366.324,366.324,,0,126,126,126,1,cvmt/test_items/t127.jpeg,o,0.7508,,,,,,,,,,,,,,,,,,,,,,,
,,117393,180,1,2024-03-07_21h47.59.889,Memory and Syntax,2023.2.3,MacIntel,60.24096386,,,,,366.3243,368.3231,n,0,368.3231,368.3234,,0,,,368.3234,368.324,,368.324,368.3241,,0,127,127,127,1,cvmt/test_items/t128.jpeg,o,1.5406,,,,,,,,,,,,,,,,,,,,,,,
,,117393,180,1,2024-03-07_21h47.59.889,Memory and Syntax,2023.2.3,MacIntel,60.24096386,,,,,368.3245,370.3229,o,1,370.3229,370.3231,,0,,,370.3232,370.3235,,370.3235,370.3236,,0,128,128,128,1,cvmt/test_items/t129.jpeg,o,0.6884,,,,,,,,,,,,,,,,,,,,,,,
,,117393,180,1,2024-03-07_21h47.59.889,Memory and Syntax,2023.2.3,MacIntel,60.24096386,,,,,370.3237,372.3232,o,1,372.3232,372.3235,,0,,,372.3235,372.3241,,372.3241,372.3242,,0,129,129,129,1,cvmt/test_items/t130.jpeg,o,0.6814,,,,,,,,,,,,,,,,,,,,,,,
,,117393,180,1,2024-03-07_21h47.59.889,Memory and Syntax,2023.2.3,MacIntel,60.24096386,,,,,372.3245,374.323,n,1,374.3231,374.3233,,0,,,374.3233,374.3239,,374.3239,374.324,,0,130,130,130,1,cvmt/test_items/t131.jpeg,n,1.1307,,,,,,,,,,,,,,,,,,,,,,,
,,117393,180,1,2024-03-07_21h47.59.889,Memory and Syntax,2023.2.3,MacIntel,60.24096386,,,,,374.3244,376.3229,n,0,376.3229,376.3231,,0,,,376.3231,376.3236,,376.3236,376.3236,,0,131,131,131,1,cvmt/test_items/t132.jpeg,o,0.9843,,,,,,,,,,,,,,,,,,,,,,,
,,117393,180,1,2024-03-07_21h47.59.889,Memory and Syntax,2023.2.3,MacIntel,60.24096386,,,,,376.3238,378.323,o,1,378.3231,378.3233,,0,,,378.3233,378.3238,,378.3238,378.324,,0,132,132,132,1,cvmt/test_items/t133.jpeg,o,0.7192,,,,,,,,,,,,,,,,,,,,,,,
,,117393,180,1,2024-03-07_21h47.59.889,Memory and Syntax,2023.2.3,MacIntel,60.24096386,,,,,378.3243,380.3228,n,0,380.323,380.3231,,0,,,380.3231,380.3235,,380.3235,380.3237,,0,133,133,133,1,cvmt/test_items/t134.jpeg,o,1.5218,,,,,,,,,,,,,,,,,,,,,,,
,,117393,180,1,2024-03-07_21h47.59.889,Memory and Syntax,2023.2.3,MacIntel,60.24096386,,,,,380.3239,382.3231,n,0,382.3231,382.3233,,0,,,382.3234,382.324,,382.324,382.3241,,0,134,134,134,1,cvmt/test_items/t135.jpeg,o,1.5771,,,,,,,,,,,,,,,,,,,,,,,
,,117393,180,1,2024-03-07_21h47.59.889,Memory and Syntax,2023.2.3,MacIntel,60.24096386,,,,,,,,,,,,,,,,,,,,,,,,,,,,,,382.3251,382.3253,0.0002,382.337,386.3077,space,3.4053,,386.3182,398.2751,1,11.9437,0,0,0,0,1,1,1,WOV,8B,Practiced the virtuoso many pieces.
,,117393,180,1,2024-03-07_21h47.59.889,Memory and Syntax,2023.2.3,MacIntel,60.24096386,,,,,,,,,,,,,,,,,,,,,,,,,,,,,,,,,,,,,,398.2759,403.574,5.5,5.2958,0,1,1,1,1,1,2,AS,6A,The rickety old boat sank.
,,117393,180,1,2024-03-07_21h47.59.889,Memory and Syntax,2023.2.3,MacIntel,60.24096386,,,,,,,,,,,,,,,,,,,,,,,,,,,,,,,,,,,,,,403.5743,409.8397,2,6.2542,0,2,2,2,1,1,3,WO,6A,The waiter set the table promptly.
,,117393,180,1,2024-03-07_21h47.59.889,Memory and Syntax,2023.2.3,MacIntel,60.24096386,,,,,,,,,,,,,,,,,,,,,,,,,,,,,,,,,,,,,,409.8401,414.6886,1.1,4.8461,0,3,3,3,1,1,4,control,12B,They anticipate that everybody you do will contact Megan.
,,117393,180,1,2024-03-07_21h47.59.889,Memory and Syntax,2023.2.3,MacIntel,60.24096386,,,,,,,,,,,,,,,,,,,,,,,,,,,,,,,,,,,,,,414.689,420.0061,5,5.3151,0,4,4,4,1,1,5,ASV,11B,The cat moved himself away.
,,117393,180,1,2024-03-07_21h47.59.889,Memory and Syntax,2023.2.3,MacIntel,60.24096386,,,,,,,,,,,,,,,,,,,,,,,,,,,,,,,,,,,,,,420.0064,423.9063,1,3.8876,0,5,5,5,1,1,6,ASV,7B,She laughed herself at the dog.
,,117393,180,1,2024-03-07_21h47.59.889,Memory and Syntax,2023.2.3,MacIntel,60.24096386,,,,,,,,,,,,,,,,,,,,,,,,,,,,,,,,,,,,,,423.9069,430.055,6,6.1454,0,6,6,6,1,1,7,AS,5A,The professor cried about the article.
,,117393,180,1,2024-03-07_21h47.59.889,Memory and Syntax,2023.2.3,MacIntel,60.24096386,,,,,,,,,,,,,,,,,,,,,,,,,,,,,,,,,,,,,,430.0553,434.7892,6.5,4.7199,0,7,7,7,1,1,8,WO,5A,My sibling expected a good grade.
,,117393,180,1,2024-03-07_21h47.59.889,Memory and Syntax,2023.2.3,MacIntel,60.24096386,,,,,,,,,,,,,,,,,,,,,,,,,,,,,,,,,,,,,,434.7894,441.1395,6.4,6.3412,0,8,8,8,1,1,9,filler,1A,There has been a man considered violent.
,,117393,180,1,2024-03-07_21h47.59.889,Memory and Syntax,2023.2.3,MacIntel,60.24096386,,,,,,,,,,,,,,,,,,,,,,,,,,,,,,,,,,,,,,441.1401,445.1551,7,4.0126,0,9,9,9,1,1,10,AS,2A,Taylor subscribed to the channel.
,,117393,180,1,2024-03-07_21h47.59.889,Memory and Syntax,2023.2.3,MacIntel,60.24096386,,,,,,,,,,,,,,,,,,,,,,,,,,,,,,,,,,,,,,445.1553,453.0727,1.8,7.9151,0,10,10,10,1,1,11,control,10B,There might fossils seem to be several miles underground.
,,117393,180,1,2024-03-07_21h47.59.889,Memory and Syntax,2023.2.3,MacIntel,60.24096386,,,,,,,,,,,,,,,,,,,,,,,,,,,,,,,,,,,,,,453.0731,457.2562,1,4.1704,0,11,11,11,1,1,12,ASV,8B,Esperanza sighed herself at the desk.
,,117393,180,1,2024-03-07_21h47.59.889,Memory and Syntax,2023.2.3,MacIntel,60.24096386,,,,,,,,,,,,,,,,,,,,,,,,,,,,,,,,,,,,,,457.2568,461.0561,7,3.7882,0,12,12,12,1,1,13,WOV,9B,Read we five pages each night.
,,117393,180,1,2024-03-07_21h47.59.889,Memory and Syntax,2023.2.3,MacIntel,60.24096386,,,,,,,,,,,,,,,,,,,,,,,,,,,,,,,,,,,,,,461.0568,465.889,1,4.8297,0,13,13,13,1,1,14,WOV,7B,Frightened the eerie sound Seth.
,,117393,180,1,2024-03-07_21h47.59.889,Memory and Syntax,2023.2.3,MacIntel,60.24096386,,,,,,,,,,,,,,,,,,,,,,,,,,,,,,,,,,,,,,465.8893,474.156,7,8.2628,0,14,14,14,1,1,15,filler,2A,"Arty is sick, and Mark is too."
,,117393,180,1,2024-03-07_21h47.59.889,Memory and Syntax,2023.2.3,MacIntel,60.24096386,,,,,,,,,,,,,,,,,,,,,,,,,,,,,,,,,,,,,,474.1564,478.7895,1.5,4.6213,0,15,15,15,1,1,16,ASV,9B,The prime minister confessed herself to bribery.
,,117393,180,1,2024-03-07_21h47.59.889,Memory and Syntax,2023.2.3,MacIntel,60.24096386,,,,,,,,,,,,,,,,,,,,,,,,,,,,,,,,,,,,,,478.7902,483.1728,3,4.3695,0,16,16,16,1,1,17,control,7B,Olivia told Gregory when to exonerate herself.
,,117393,180,1,2024-03-07_21h47.59.889,Memory and Syntax,2023.2.3,MacIntel,60.24096386,,,,,,,,,,,,,,,,,,,,,,,,,,,,,,,,,,,,,,483.1733,487.8228,1.5,4.6377,0,17,17,17,1,1,18,control,11B,There are likely students to be in the library.
,,117393,180,1,2024-03-07_21h47.59.889,Memory and Syntax,2023.2.3,MacIntel,60.24096386,,,,,,,,,,,,,,,,,,,,,,,,,,,,,,,,,,,,,,487.8234,490.9559,6.5,3.1288,0,18,18,18,1,1,19,filler,5A,I told Mandy who would win the election.
,,117393,180,1,2024-03-07_21h47.59.889,Memory and Syntax,2023.2.3,MacIntel,60.24096386,,,,,,,,,,,,,,,,,,,,,,,,,,,,,,,,,,,,,,490.9562,495.0893,1,4.1296,0,19,19,19,1,1,20,control,9B,We consider there three problems.
,,117393,180,1,2024-03-07_21h47.59.889,Memory and Syntax,2023.2.3,MacIntel,60.24096386,,,,,,,,,,,,,,,,,,,,,,,,,,,,,,,,,,,,,,495.0897,498.4721,1,3.3782,0,20,20,20,1,1,21,control,8B,She called Victor and yelled at.
,,117393,180,1,2024-03-07_21h47.59.889,Memory and Syntax,2023.2.3,MacIntel,60.24096386,,,,,,,,,,,,,,,,,,,,,,,,,,,,,,,,,,,,,,498.4725,504.5892,7,6.1129,0,21,21,21,1,1,22,WO,4A,The bully pushed every student.
,,117393,180,1,2024-03-07_21h47.59.889,Memory and Syntax,2023.2.3,MacIntel,60.24096386,,,,,,,,,,,,,,,,,,,,,,,,,,,,,,,,,,,,,,504.5897,512.5227,7,7.9284,0,22,22,22,1,1,23,WO,3A,Miguel baked delicious cupcakes.
,,117393,180,1,2024-03-07_21h47.59.889,Memory and Syntax,2023.2.3,MacIntel,60.24096386,,,,,,,,,,,,,,,,,,,,,,,,,,,,,,,,,,,,,,512.523,515.9561,7,3.4205,0,23,23,23,1,1,24,WO,1A,Abby answered the question.
,,117393,180,1,2024-03-07_21h47.59.889,Memory and Syntax,2023.2.3,MacIntel,60.24096386,,,,,,,,,,,,,,,,,,,,,,,,,,,,,,,,,,,,,,515.9566,519.3731,7,3.4142,0,24,24,24,1,1,25,filler,3A,Brittany attempted to touch the porcupine.
,,117393,180,1,2024-03-07_21h47.59.889,Memory and Syntax,2023.2.3,MacIntel,60.24096386,,,,,,,,,,,,,,,,,,,,,,,,,,,,,,,,,,,,,,519.3734,522.3227,7,2.9451,0,25,25,25,1,1,26,AS,3A,Gracie stayed by the window.
,,117393,180,1,2024-03-07_21h47.59.889,Memory and Syntax,2023.2.3,MacIntel,60.24096386,,,,,,,,,,,,,,,,,,,,,,,,,,,,,,,,,,,,,,522.3231,530.3559,1.4,8.0296,0,26,26,26,1,1,27,WOV,11B,Wrote she her boyfriend a poem.
,,117393,180,1,2024-03-07_21h47.59.889,Memory and Syntax,2023.2.3,MacIntel,60.24096386,,,,,,,,,,,,,,,,,,,,,,,,,,,,,,,,,,,,,,530.3562,540.056,1,9.6864,0,27,27,27,1,1,28,WOV,12B,Watched Lily a movie.
,,117393,180,1,2024-03-07_21h47.59.889,Memory and Syntax,2023.2.3,MacIntel,60.24096386,,,,,,,,,,,,,,,,,,,,,,,,,,,,,,,,,,,,,,540.0564,544.106,7,4.0453,0,28,28,28,1,1,29,WO,2A,Jackie won the close race.
,,117393,180,1,2024-03-07_21h47.59.889,Memory and Syntax,2023.2.3,MacIntel,60.24096386,,,,,,,,,,,,,,,,,,,,,,,,,,,,,,,,,,,,,,544.1063,549.9226,7,5.814,0,29,29,29,1,1,30,AS,4A,Tomas drank from the water pitcher.
,,117393,180,1,2024-03-07_21h47.59.889,Memory and Syntax,2023.2.3,MacIntel,60.24096386,,,,,,,,,,,,,,,,,,,,,,,,,,,,,,,,,,,,,,549.923,553.8061,1,3.8698,0,30,30,30,1,1,31,WOV,10B,Kissed Kareem his boyfriend.
,,117393,180,1,2024-03-07_21h47.59.889,Memory and Syntax,2023.2.3,MacIntel,60.24096386,,,,,,,,,,,,,,,,,,,,,,,,,,,,,,,,,,,,,,553.8067,558.8229,7,5.0036,0,31,31,31,1,1,32,ASV,10B,The children quieted themselves.
,,117393,180,1,2024-03-07_21h47.59.889,Memory and Syntax,2023.2.3,MacIntel,60.24096386,,,,,,,,,,,,,,,,,,,,,,,,,,,,,,,,,,,,,,558.8235,574.8726,7,16.0363,0,32,32,32,1,1,33,AS,1A,They fidgeted in their chairs.
,,117393,180,1,2024-03-07_21h47.59.889,Memory and Syntax,2023.2.3,MacIntel,60.24096386,,,,,,,,,,,,,,,,,,,,,,,,,,,,,,,,,,,,,,574.8732,580.3894,7,5.5025,0,33,33,33,1,1,34,filler,4A,It seems to him that Kim solved the problem.
,,117393,180,1,2024-03-07_21h47.59.889,Memory and Syntax,2023.2.3,MacIntel,60.24096386,,,,,,,,,,,,,,,,,,,,,,,,,,,,,,,,,,,,,,580.39,583.8889,7,3.497,0,34,34,34,1,1,35,ASV,12B,The swimmers shaved themselves.