load.started,load.stopped,Sona ID,Participant ID,Session,date,expName,psychopyVersion,OS,frameRate,cvmtInstr.started,cvmtInstr.stopped,cvmtTaskInstr.started,cvmtTaskInstr.stopped,presentDesign.started,presentDesign.stopped,cvmt_key_resp.keys,cvmt_key_resp.corr,cvmtNoResp.started,cvmtNoResp.stopped,cvmt_key_resp2.keys,cvmt_key_resp2.corr,cvmt_key_resp2.rt,cvmt_key_resp2.duration,cvmtSampleFB.started,cvmtSampleFB.stopped,key_resp_15.keys,cvmtSampleFBFinal.started,cvmtSampleFBFinal.stopped,cvmt_final_samp_fb_key_resp.keys,cvmtTrials.thisRepN,cvmtTrials.thisTrialN,cvmtTrials.thisN,cvmtTrials.thisIndex,cvmtTrials.ran,cvmt_design,old_or_new,cvmt_key_resp.rt,cvmt_key_resp.duration,key_resp_15.rt,key_resp_15.duration,cvmt_final_samp_fb_key_resp.rt,cvmt_final_samp_fb_key_resp.duration,cvmtDelay.started,cvmtDelay.stopped,cvmt timer,engAJT_instr.started,engAJT_instr.stopped,start_ajt.keys,start_ajt.rt,start_ajt.duration,engAJT.started,engAJT.stopped,acceptability.response,acceptability.rt,engAJT_trials.thisRepN,engAJT_trials.thisTrialN,engAJT_trials.thisN,engAJT_trials.thisIndex,engAJT_trials.ran,ajt_list,list_position,condition,item,testSent,brocantoIntro.started,brocantoIntro.stopped,vocabInstr.started,vocabInstr.stopped,vocabLearnTrial.started,vocabLearnTrial.stopped,vocabLearnTrials.thisRepN,vocabLearnTrials.thisTrialN,vocabLearnTrials.thisN,vocabLearnTrials.thisIndex,vocabLearnTrials.ran,word,img,audio_vocab,version,vocabRepeat.started,vocabRepeat.stopped,vrepeat_key_resp.keys,vrepeat_key_resp.rt,vrepeat_key_resp.duration,vocabRep.thisRepN,vocabRep.thisTrialN,vocabRep.thisN,vocabRep.thisIndex,vocabRep.ran,vocabTestInstr.started,vocabTestInstr.stopped,vocabTest.started,vocabTest.stopped,vtest_key_resp.keys,vtest_key_resp.rt,vtest_key_resp.duration,vocabTest_fb.started,vocabTest_fb.stopped,too_fast_punish.thisRepN,too_fast_punish.thisTrialN,too_fast_punish.thisN,too_fast_punish.thisIndex,too_fast_punish.ran,vocabTestTrials.thisRepN,vocabTestTrials.thisTrialN,vocabTestTrials.thisN,vocabTestTrials.thisIndex,vocabTestTrials.ran,experimentFlow.thisRepN,experimentFlow.thisTrialN,experimentFlow.thisN,experimentFlow.thisIndex,experimentFlow.ran,experimentFlow.order,session,mem_test_reps,cvmt,cvmtP1_reps,cvmtP2_reps,asrt,crtt,cspan,english_ajt_reps,brocanto_learn_reps,brocanto_gjt_reps,brocantoLearnPrax.thisRepN,brocantoLearnPrax.thisTrialN,brocantoLearnPrax.thisN,brocantoLearnPrax.thisIndex,brocantoLearnPrax.ran,brocantoLearnPrax.order,brocantoResources,vocabPhase.thisRepN,vocabPhase.thisTrialN,vocabPhase.thisN,vocabPhase.thisIndex,vocabPhase.ran,vocabPhase.order,vocabTestTrials.order
0.0009,0.0062,117478,031,1,2024-03-05_22h24.32.830,Memory and Syntax,2023.2.3,Win32,59.88023952,,,,,,,,,,,,,,,,,,,,,,,,,,,,,,,,,,,,,,,,,,,,,,,,,,,,,,,,,,,,,,,,,,,,,,,,,,,,,,,,,,,,,,,,,,,,,,,,,,,,,,,,,,,,,,,,,,,,,,,,,,,,,,,,,,
,,117478,031,1,2024-03-05_22h24.32.830,Memory and Syntax,2023.2.3,Win32,59.88023952,0.0179,1.7158,1.7192,2.2659,2.2965,4.2823,,0,4.2826,7.1822,n,1,2.8914,,7.1825,7.1879,,7.1882,7.1887,,0,0,0,0,1,cvmt/sample/s1.jpg,n,,,,,,,,,,,,,,,,,,,,,,,,,,,,,,,,,,,,,,,,,,,,,,,,,,,,,,,,,,,,,,,,,,,,,,,,,,,,,,,,,,,,,,,,,,,,,,,,,,,,,,,
,,117478,031,1,2024-03-05_22h24.32.830,Memory and Syntax,2023.2.3,Win32,59.88023952,,,,,7.1895,9.1823,n,1,9.1826,9.1841,,0,,,9.1844,9.185,,9.1851,9.1855,,0,1,1,1,1,cvmt/sample/s2.jpg,n,0.6109,,,,,,,,,,,,,,,,,,,,,,,,,,,,,,,,,,,,,,,,,,,,,,,,,,,,,,,,,,,,,,,,,,,,,,,,,,,,,,,,,,,,,,,,,,,,,,,,,,,,,,
,,117478,031,1,2024-03-05_22h24.32.830,Memory and Syntax,2023.2.3,Win32,59.88023952,,,,,9.1863,11.1822,n,0,11.1825,11.183,,0,,,11.1833,14.0321,c,14.0324,14.0328,,0,2,2,2,1,cvmt/sample/s3.jpg,o,0.8125,,2.8314,,,,,,,,,,,,,,,,,,,,,,,,,,,,,,,,,,,,,,,,,,,,,,,,,,,,,,,,,,,,,,,,,,,,,,,,,,,,,,,,,,,,,,,,,,,,,,,,,,,,
,,117478,031,1,2024-03-05_22h24.32.830,Memory and Syntax,2023.2.3,Win32,59.88023952,,,,,14.0336,16.0323,n,1,16.0325,16.0338,,0,,,16.034,16.0351,,16.0354,16.0357,,0,3,3,3,1,cvmt/sample/s4.jpg,n,0.8702,,,,,,,,,,,,,,,,,,,,,,,,,,,,,,,,,,,,,,,,,,,,,,,,,,,,,,,,,,,,,,,,,,,,,,,,,,,,,,,,,,,,,,,,,,,,,,,,,,,,,,
,,117478,031,1,2024-03-05_22h24.32.830,Memory and Syntax,2023.2.3,Win32,59.88023952,,,,,16.0364,18.0324,n,1,18.0327,18.0334,,0,,,18.0336,18.0341,,18.0344,18.0348,,0,4,4,4,1,cvmt/sample/s5.jpg,n,1.9528,,,,,,,,,,,,,,,,,,,,,,,,,,,,,,,,,,,,,,,,,,,,,,,,,,,,,,,,,,,,,,,,,,,,,,,,,,,,,,,,,,,,,,,,,,,,,,,,,,,,,,
,,117478,031,1,2024-03-05_22h24.32.830,Memory and Syntax,2023.2.3,Win32,59.88023952,,,,,18.0355,20.0323,n,1,20.0326,20.0332,,0,,,20.0334,20.0341,,20.0342,20.0347,,0,5,5,5,1,cvmt/sample/s6.jpg,n,0.7255,,,,,,,,,,,,,,,,,,,,,,,,,,,,,,,,,,,,,,,,,,,,,,,,,,,,,,,,,,,,,,,,,,,,,,,,,,,,,,,,,,,,,,,,,,,,,,,,,,,,,,
,,117478,031,1,2024-03-05_22h24.32.830,Memory and Syntax,2023.2.3,Win32,59.88023952,,,,,20.0354,22.0324,o,1,22.0326,22.0331,,0,,,22.0333,22.0338,,22.034,22.0344,,0,6,6,6,1,cvmt/sample/s7.jpg,o,1.4604,,,,,,,,,,,,,,,,,,,,,,,,,,,,,,,,,,,,,,,,,,,,,,,,,,,,,,,,,,,,,,,,,,,,,,,,,,,,,,,,,,,,,,,,,,,,,,,,,,,,,,
,,117478,031,1,2024-03-05_22h24.32.830,Memory and Syntax,2023.2.3,Win32,59.88023952,,,,,22.0349,24.0321,n,1,24.0324,24.033,,0,,,24.0332,24.0338,,24.0339,24.0342,,0,7,7,7,1,cvmt/sample/s8.jpg,n,0.6441,,,,,,,,,,,,,,,,,,,,,,,,,,,,,,,,,,,,,,,,,,,,,,,,,,,,,,,,,,,,,,,,,,,,,,,,,,,,,,,,,,,,,,,,,,,,,,,,,,,,,,
,,117478,031,1,2024-03-05_22h24.32.830,Memory and Syntax,2023.2.3,Win32,59.88023952,,,,,24.0348,26.0323,n,1,26.0325,26.0332,,0,,,26.0334,26.0343,,26.0345,26.035,,0,8,8,8,1,cvmt/sample/s9.jpg,n,0.9108,,,,,,,,,,,,,,,,,,,,,,,,,,,,,,,,,,,,,,,,,,,,,,,,,,,,,,,,,,,,,,,,,,,,,,,,,,,,,,,,,,,,,,,,,,,,,,,,,,,,,,
,,117478,031,1,2024-03-05_22h24.32.830,Memory and Syntax,2023.2.3,Win32,59.88023952,,,,,26.0357,28.0323,,0,28.0326,29.6322,n,1,1.591,,29.6325,29.6377,,29.6379,29.6383,,0,9,9,9,1,cvmt/sample/s10.jpg,n,,,,,,,,,,,,,,,,,,,,,,,,,,,,,,,,,,,,,,,,,,,,,,,,,,,,,,,,,,,,,,,,,,,,,,,,,,,,,,,,,,,,,,,,,,,,,,,,,,,,,,,
,,117478,031,1,2024-03-05_22h24.32.830,Memory and Syntax,2023.2.3,Win32,59.88023952,,,,,29.639,31.6322,o,1,31.6325,31.6339,,0,,,31.6342,31.6347,,31.6349,40.4541,c,0,10,10,10,1,cvmt/sample/s11.jpg,o,0.7275,,,,8.7958,1E-04,,,,,,,,,,,,,,,,,,,,,,,,,,,,,,,,,,,,,,,,,,,,,,,,,,,,,,,,,,,,,,,,,,,,,,,,,,,,,,,,,,,,,,,,,,,,,,,,,
,,117478,031,1,2024-03-05_22h24.32.830,Memory and Syntax,2023.2.3,Win32,59.88023952,,,40.4554,41.8654,41.8718,43.8653,n,1,43.8653,43.8654,,0,,,43.8654,43.8656,,43.8656,43.8663,,0,0,0,0,1,cvmt/test_items/t1.jpeg,n,0.986,,,,,,,,,,,,,,,,,,,,,,,,,,,,,,,,,,,,,,,,,,,,,,,,,,,,,,,,,,,,,,,,,,,,,,,,,,,,,,,,,,,,,,,,,,,,,,,,,,,,,,
,,117478,031,1,2024-03-05_22h24.32.830,Memory and Syntax,2023.2.3,Win32,59.88023952,,,,,43.8664,45.8654,n,1,45.8654,45.8655,,0,,,45.8655,45.8657,,45.8657,45.8658,,0,1,1,1,1,cvmt/test_items/t2.jpeg,n,1.1239,,,,,,,,,,,,,,,,,,,,,,,,,,,,,,,,,,,,,,,,,,,,,,,,,,,,,,,,,,,,,,,,,,,,,,,,,,,,,,,,,,,,,,,,,,,,,,,,,,,,,,
,,117478,031,1,2024-03-05_22h24.32.830,Memory and Syntax,2023.2.3,Win32,59.88023952,,,,,45.8659,47.8653,n,0,47.8654,47.8654,,0,,,47.8655,47.8657,,47.8657,47.8657,,0,2,2,2,1,cvmt/test_items/t3.jpeg,o,0.6552,,,,,,,,,,,,,,,,,,,,,,,,,,,,,,,,,,,,,,,,,,,,,,,,,,,,,,,,,,,,,,,,,,,,,,,,,,,,,,,,,,,,,,,,,,,,,,,,,,,,,,
,,117478,031,1,2024-03-05_22h24.32.830,Memory and Syntax,2023.2.3,Win32,59.88023952,,,,,47.8659,49.8653,n,0,49.8653,49.8654,,0,,,49.8654,49.8657,,49.8657,49.8657,,0,3,3,3,1,cvmt/test_items/t4.jpeg,o,0.4137,,,,,,,,,,,,,,,,,,,,,,,,,,,,,,,,,,,,,,,,,,,,,,,,,,,,,,,,,,,,,,,,,,,,,,,,,,,,,,,,,,,,,,,,,,,,,,,,,,,,,,
,,117478,031,1,2024-03-05_22h24.32.830,Memory and Syntax,2023.2.3,Win32,59.88023952,,,,,49.8658,51.8653,n,0,51.8653,51.8654,,0,,,51.8654,51.8656,,51.8656,51.8656,,0,4,4,4,1,cvmt/test_items/t5.jpeg,o,0.2075,,,,,,,,,,,,,,,,,,,,,,,,,,,,,,,,,,,,,,,,,,,,,,,,,,,,,,,,,,,,,,,,,,,,,,,,,,,,,,,,,,,,,,,,,,,,,,,,,,,,,,
,,117478,031,1,2024-03-05_22h24.32.830,Memory and Syntax,2023.2.3,Win32,59.88023952,,,,,51.8657,53.8653,n,0,53.8653,53.8654,,0,,,53.8654,53.8657,,53.8657,53.8657,,0,5,5,5,1,cvmt/test_items/t6.jpeg,o,0.0193,,,,,,,,,,,,,,,,,,,,,,,,,,,,,,,,,,,,,,,,,,,,,,,,,,,,,,,,,,,,,,,,,,,,,,,,,,,,,,,,,,,,,,,,,,,,,,,,,,,,,,
,,117478,031,1,2024-03-05_22h24.32.830,Memory and Syntax,2023.2.3,Win32,59.88023952,,,,,53.8658,55.8653,n,0,55.8653,55.8653,,0,,,55.8654,55.8656,,55.8656,55.8656,,0,6,6,6,1,cvmt/test_items/t7.jpeg,o,0.5174,,,,,,,,,,,,,,,,,,,,,,,,,,,,,,,,,,,,,,,,,,,,,,,,,,,,,,,,,,,,,,,,,,,,,,,,,,,,,,,,,,,,,,,,,,,,,,,,,,,,,,
,,117478,031,1,2024-03-05_22h24.32.830,Memory and Syntax,2023.2.3,Win32,59.88023952,,,,,55.8657,57.8653,n,0,57.8653,57.8654,,0,,,57.8654,57.8657,,57.8657,57.8657,,0,7,7,7,1,cvmt/test_items/t8.jpeg,o,0.4336,,,,,,,,,,,,,,,,,,,,,,,,,,,,,,,,,,,,,,,,,,,,,,,,,,,,,,,,,,,,,,,,,,,,,,,,,,,,,,,,,,,,,,,,,,,,,,,,,,,,,,
,,117478,031,1,2024-03-05_22h24.32.830,Memory and Syntax,2023.2.3,Win32,59.88023952,,,,,57.8659,59.8652,n,0,59.8653,59.8654,,0,,,59.8654,59.8656,,59.8656,59.8656,,0,8,8,8,1,cvmt/test_items/t9.jpeg,o,1.4128,,,,,,,,,,,,,,,,,,,,,,,,,,,,,,,,,,,,,,,,,,,,,,,,,,,,,,,,,,,,,,,,,,,,,,,,,,,,,,,,,,,,,,,,,,,,,,,,,,,,,,
,,117478,031,1,2024-03-05_22h24.32.830,Memory and Syntax,2023.2.3,Win32,59.88023952,,,,,59.8657,61.8653,n,0,61.8653,61.8653,,0,,,61.8653,61.8656,,61.8656,61.8656,,0,9,9,9,1,cvmt/test_items/t10.jpeg,o,1.1344,,,,,,,,,,,,,,,,,,,,,,,,,,,,,,,,,,,,,,,,,,,,,,,,,,,,,,,,,,,,,,,,,,,,,,,,,,,,,,,,,,,,,,,,,,,,,,,,,,,,,,
,,117478,031,1,2024-03-05_22h24.32.830,Memory and Syntax,2023.2.3,Win32,59.88023952,,,,,61.8657,63.8653,n,1,63.8653,63.8654,,0,,,63.8654,63.8656,,63.8656,63.8657,,0,10,10,10,1,cvmt/test_items/t11.jpeg,n,0.6024,,,,,,,,,,,,,,,,,,,,,,,,,,,,,,,,,,,,,,,,,,,,,,,,,,,,,,,,,,,,,,,,,,,,,,,,,,,,,,,,,,,,,,,,,,,,,,,,,,,,,,
,,117478,031,1,2024-03-05_22h24.32.830,Memory and Syntax,2023.2.3,Win32,59.88023952,,,,,63.8658,65.8653,n,0,65.8653,65.8654,,0,,,65.8654,65.8657,,65.8657,65.8657,,0,11,11,11,1,cvmt/test_items/t12.jpeg,o,0.6853,,,,,,,,,,,,,,,,,,,,,,,,,,,,,,,,,,,,,,,,,,,,,,,,,,,,,,,,,,,,,,,,,,,,,,,,,,,,,,,,,,,,,,,,,,,,,,,,,,,,,,
,,117478,031,1,2024-03-05_22h24.32.830,Memory and Syntax,2023.2.3,Win32,59.88023952,,,,,65.8658,67.8653,o,1,67.8653,67.8655,,0,,,67.8655,67.8657,,67.8657,67.8657,,0,12,12,12,1,cvmt/test_items/t13.jpeg,o,0.5167,,,,,,,,,,,,,,,,,,,,,,,,,,,,,,,,,,,,,,,,,,,,,,,,,,,,,,,,,,,,,,,,,,,,,,,,,,,,,,,,,,,,,,,,,,,,,,,,,,,,,,
,,117478,031,1,2024-03-05_22h24.32.830,Memory and Syntax,2023.2.3,Win32,59.88023952,,,,,67.8659,69.8653,n,0,69.8653,69.8655,,0,,,69.8655,69.8657,,69.8657,69.8657,,0,13,13,13,1,cvmt/test_items/t14.jpeg,o,0.5996,,,,,,,,,,,,,,,,,,,,,,,,,,,,,,,,,,,,,,,,,,,,,,,,,,,,,,,,,,,,,,,,,,,,,,,,,,,,,,,,,,,,,,,,,,,,,,,,,,,,,,
,,117478,031,1,2024-03-05_22h24.32.830,Memory and Syntax,2023.2.3,Win32,59.88023952,,,,,69.8658,71.8654,n,0,71.8654,71.8655,,0,,,71.8655,71.8657,,71.8657,71.8658,,0,14,14,14,1,cvmt/test_items/t15.jpeg,o,0.0796,,,,,,,,,,,,,,,,,,,,,,,,,,,,,,,,,,,,,,,,,,,,,,,,,,,,,,,,,,,,,,,,,,,,,,,,,,,,,,,,,,,,,,,,,,,,,,,,,,,,,,
,,117478,031,1,2024-03-05_22h24.32.830,Memory and Syntax,2023.2.3,Win32,59.88023952,,,,,71.866,73.8655,n,0,73.8655,73.8656,,0,,,73.8656,73.8658,,73.8658,73.8658,,0,15,15,15,1,cvmt/test_items/t16.jpeg,o,1.1915,,,,,,,,,,,,,,,,,,,,,,,,,,,,,,,,,,,,,,,,,,,,,,,,,,,,,,,,,,,,,,,,,,,,,,,,,,,,,,,,,,,,,,,,,,,,,,,,,,,,,,
,,117478,031,1,2024-03-05_22h24.32.830,Memory and Syntax,2023.2.3,Win32,59.88023952,,,,,73.866,75.8653,o,1,75.8653,75.8655,,0,,,75.8655,75.8656,,75.8656,75.8657,,0,16,16,16,1,cvmt/test_items/t17.jpeg,o,0.5936,,,,,,,,,,,,,,,,,,,,,,,,,,,,,,,,,,,,,,,,,,,,,,,,,,,,,,,,,,,,,,,,,,,,,,,,,,,,,,,,,,,,,,,,,,,,,,,,,,,,,,
,,117478,031,1,2024-03-05_22h24.32.830,Memory and Syntax,2023.2.3,Win32,59.88023952,,,,,75.8658,77.8654,n,0,77.8654,77.8655,,0,,,77.8655,77.8657,,77.8657,77.8658,,0,17,17,17,1,cvmt/test_items/t18.jpeg,o,0.2944,,,,,,,,,,,,,,,,,,,,,,,,,,,,,,,,,,,,,,,,,,,,,,,,,,,,,,,,,,,,,,,,,,,,,,,,,,,,,,,,,,,,,,,,,,,,,,,,,,,,,,
,,117478,031,1,2024-03-05_22h24.32.830,Memory and Syntax,2023.2.3,Win32,59.88023952,,,,,77.8658,79.8654,o,0,79.8654,79.8655,,0,,,79.8656,79.8657,,79.8657,79.8657,,0,18,18,18,1,cvmt/test_items/t19.jpeg,n,0.6083,,,,,,,,,,,,,,,,,,,,,,,,,,,,,,,,,,,,,,,,,,,,,,,,,,,,,,,,,,,,,,,,,,,,,,,,,,,,,,,,,,,,,,,,,,,,,,,,,,,,,,
,,117478,031,1,2024-03-05_22h24.32.830,Memory and Syntax,2023.2.3,Win32,59.88023952,,,,,79.8659,81.8653,o,1,81.8653,81.8654,,0,,,81.8654,81.8657,,81.8657,81.8657,,0,19,19,19,1,cvmt/test_items/t20.jpeg,o,0.3363,,,,,,,,,,,,,,,,,,,,,,,,,,,,,,,,,,,,,,,,,,,,,,,,,,,,,,,,,,,,,,,,,,,,,,,,,,,,,,,,,,,,,,,,,,,,,,,,,,,,,,
,,117478,031,1,2024-03-05_22h24.32.830,Memory and Syntax,2023.2.3,Win32,59.88023952,,,,,81.8659,83.8653,n,0,83.8653,83.8654,,0,,,83.8654,83.8658,,83.8658,83.8658,,0,20,20,20,1,cvmt/test_items/t21.jpeg,o,0.2614,,,,,,,,,,,,,,,,,,,,,,,,,,,,,,,,,,,,,,,,,,,,,,,,,,,,,,,,,,,,,,,,,,,,,,,,,,,,,,,,,,,,,,,,,,,,,,,,,,,,,,
,,117478,031,1,2024-03-05_22h24.32.830,Memory and Syntax,2023.2.3,Win32,59.88023952,,,,,83.866,85.8653,n,0,85.8654,85.8654,,0,,,85.8654,85.8656,,85.8657,85.8657,,0,21,21,21,1,cvmt/test_items/t22.jpeg,o,0.0581,,,,,,,,,,,,,,,,,,,,,,,,,,,,,,,,,,,,,,,,,,,,,,,,,,,,,,,,,,,,,,,,,,,,,,,,,,,,,,,,,,,,,,,,,,,,,,,,,,,,,,
,,117478,031,1,2024-03-05_22h24.32.830,Memory and Syntax,2023.2.3,Win32,59.88023952,,,,,85.8658,87.8653,n,1,87.8653,87.8654,,0,,,87.8654,87.8656,,87.8656,87.8656,,0,22,22,22,1,cvmt/test_items/t23.jpeg,n,0.2055,,,,,,,,,,,,,,,,,,,,,,,,,,,,,,,,,,,,,,,,,,,,,,,,,,,,,,,,,,,,,,,,,,,,,,,,,,,,,,,,,,,,,,,,,,,,,,,,,,,,,,
,,117478,031,1,2024-03-05_22h24.32.830,Memory and Syntax,2023.2.3,Win32,59.88023952,,,,,87.8657,89.8653,n,1,89.8653,89.8653,,0,,,89.8654,89.8655,,89.8656,89.8656,,0,23,23,23,1,cvmt/test_items/t24.jpeg,n,0.3299,,,,,,,,,,,,,,,,,,,,,,,,,,,,,,,,,,,,,,,,,,,,,,,,,,,,,,,,,,,,,,,,,,,,,,,,,,,,,,,,,,,,,,,,,,,,,,,,,,,,,,
,,117478,031,1,2024-03-05_22h24.32.830,Memory and Syntax,2023.2.3,Win32,59.88023952,,,,,89.8657,91.8653,n,0,91.8654,91.8654,,0,,,91.8654,91.8657,,91.8657,91.8657,,0,24,24,24,1,cvmt/test_items/t25.jpeg,o,0.2233,,,,,,,,,,,,,,,,,,,,,,,,,,,,,,,,,,,,,,,,,,,,,,,,,,,,,,,,,,,,,,,,,,,,,,,,,,,,,,,,,,,,,,,,,,,,,,,,,,,,,,
,,117478,031,1,2024-03-05_22h24.32.830,Memory and Syntax,2023.2.3,Win32,59.88023952,,,,,91.8658,93.8654,o,0,93.8654,93.8656,,0,,,93.8656,93.8657,,93.8657,93.8657,,0,25,25,25,1,cvmt/test_items/t26.jpeg,n,0.2352,,,,,,,,,,,,,,,,,,,,,,,,,,,,,,,,,,,,,,,,,,,,,,,,,,,,,,,,,,,,,,,,,,,,,,,,,,,,,,,,,,,,,,,,,,,,,,,,,,,,,,
,,117478,031,1,2024-03-05_22h24.32.830,Memory and Syntax,2023.2.3,Win32,59.88023952,,,,,93.8659,95.8655,o,1,95.8655,95.8656,,0,,,95.8656,95.8658,,95.8658,95.8659,,0,26,26,26,1,cvmt/test_items/t27.jpeg,o,1.3907,,,,,,,,,,,,,,,,,,,,,,,,,,,,,,,,,,,,,,,,,,,,,,,,,,,,,,,,,,,,,,,,,,,,,,,,,,,,,,,,,,,,,,,,,,,,,,,,,,,,,,
,,117478,031,1,2024-03-05_22h24.32.830,Memory and Syntax,2023.2.3,Win32,59.88023952,,,,,95.866,97.8654,n,1,97.8654,97.8655,,0,,,97.8656,97.8658,,97.8658,97.8658,,0,27,27,27,1,cvmt/test_items/t28.jpeg,n,0.5309,,,,,,,,,,,,,,,,,,,,,,,,,,,,,,,,,,,,,,,,,,,,,,,,,,,,,,,,,,,,,,,,,,,,,,,,,,,,,,,,,,,,,,,,,,,,,,,,,,,,,,
,,117478,031,1,2024-03-05_22h24.32.830,Memory and Syntax,2023.2.3,Win32,59.88023952,,,,,97.866,99.8654,n,1,99.8654,99.8656,,0,,,99.8656,99.8658,,99.8658,99.8658,,0,28,28,28,1,cvmt/test_items/t29.jpeg,n,1.0564,,,,,,,,,,,,,,,,,,,,,,,,,,,,,,,,,,,,,,,,,,,,,,,,,,,,,,,,,,,,,,,,,,,,,,,,,,,,,,,,,,,,,,,,,,,,,,,,,,,,,,
,,117478,031,1,2024-03-05_22h24.32.830,Memory and Syntax,2023.2.3,Win32,59.88023952,,,,,99.866,101.8653,o,1,101.8653,101.8655,,0,,,101.8655,101.8657,,101.8657,101.8657,,0,29,29,29,1,cvmt/test_items/t30.jpeg,o,0.5049,,,,,,,,,,,,,,,,,,,,,,,,,,,,,,,,,,,,,,,,,,,,,,,,,,,,,,,,,,,,,,,,,,,,,,,,,,,,,,,,,,,,,,,,,,,,,,,,,,,,,,
,,117478,031,1,2024-03-05_22h24.32.830,Memory and Syntax,2023.2.3,Win32,59.88023952,,,,,101.8658,103.8654,o,1,103.8655,103.8656,,0,,,103.8656,103.8659,,103.866,103.866,,0,30,30,30,1,cvmt/test_items/t31.jpeg,o,0.6148,,,,,,,,,,,,,,,,,,,,,,,,,,,,,,,,,,,,,,,,,,,,,,,,,,,,,,,,,,,,,,,,,,,,,,,,,,,,,,,,,,,,,,,,,,,,,,,,,,,,,,
,,117478,031,1,2024-03-05_22h24.32.830,Memory and Syntax,2023.2.3,Win32,59.88023952,,,,,103.8662,105.8654,n,1,105.8654,105.8655,,0,,,105.8655,105.8657,,105.8657,105.8657,,0,31,31,31,1,cvmt/test_items/t32.jpeg,n,0.7857,,,,,,,,,,,,,,,,,,,,,,,,,,,,,,,,,,,,,,,,,,,,,,,,,,,,,,,,,,,,,,,,,,,,,,,,,,,,,,,,,,,,,,,,,,,,,,,,,,,,,,
,,117478,031,1,2024-03-05_22h24.32.830,Memory and Syntax,2023.2.3,Win32,59.88023952,,,,,105.8659,107.8654,o,0,107.8654,107.8655,,0,,,107.8655,107.8658,,107.8658,107.8658,,0,32,32,32,1,cvmt/test_items/t33.jpeg,n,0.3325,,,,,,,,,,,,,,,,,,,,,,,,,,,,,,,,,,,,,,,,,,,,,,,,,,,,,,,,,,,,,,,,,,,,,,,,,,,,,,,,,,,,,,,,,,,,,,,,,,,,,,
,,117478,031,1,2024-03-05_22h24.32.830,Memory and Syntax,2023.2.3,Win32,59.88023952,,,,,107.8659,109.8654,o,1,109.8655,109.8655,,0,,,109.8655,109.8658,,109.8658,109.8658,,0,33,33,33,1,cvmt/test_items/t34.jpeg,o,0.9784,,,,,,,,,,,,,,,,,,,,,,,,,,,,,,,,,,,,,,,,,,,,,,,,,,,,,,,,,,,,,,,,,,,,,,,,,,,,,,,,,,,,,,,,,,,,,,,,,,,,,,
,,117478,031,1,2024-03-05_22h24.32.830,Memory and Syntax,2023.2.3,Win32,59.88023952,,,,,109.866,111.8653,n,1,111.8653,111.8655,,0,,,111.8655,111.8657,,111.8657,111.8657,,0,34,34,34,1,cvmt/test_items/t35.jpeg,n,0.9218,,,,,,,,,,,,,,,,,,,,,,,,,,,,,,,,,,,,,,,,,,,,,,,,,,,,,,,,,,,,,,,,,,,,,,,,,,,,,,,,,,,,,,,,,,,,,,,,,,,,,,
,,117478,031,1,2024-03-05_22h24.32.830,Memory and Syntax,2023.2.3,Win32,59.88023952,,,,,111.8658,113.8655,o,1,113.8655,113.8656,,0,,,113.8656,113.8658,,113.8659,113.8659,,0,35,35,35,1,cvmt/test_items/t36.jpeg,o,0.614,,,,,,,,,,,,,,,,,,,,,,,,,,,,,,,,,,,,,,,,,,,,,,,,,,,,,,,,,,,,,,,,,,,,,,,,,,,,,,,,,,,,,,,,,,,,,,,,,,,,,,
,,117478,031,1,2024-03-05_22h24.32.830,Memory and Syntax,2023.2.3,Win32,59.88023952,,,,,113.866,115.8655,o,0,115.8655,115.8656,,0,,,115.8656,115.8658,,115.8658,115.8659,,0,36,36,36,1,cvmt/test_items/t37.jpeg,n,0.6355,,,,,,,,,,,,,,,,,,,,,,,,,,,,,,,,,,,,,,,,,,,,,,,,,,,,,,,,,,,,,,,,,,,,,,,,,,,,,,,,,,,,,,,,,,,,,,,,,,,,,,
,,117478,031,1,2024-03-05_22h24.32.830,Memory and Syntax,2023.2.3,Win32,59.88023952,,,,,115.866,117.8654,n,0,117.8655,117.8655,,0,,,117.8655,117.8657,,117.8658,117.8659,,0,37,37,37,1,cvmt/test_items/t38.jpeg,o,1.2016,,,,,,,,,,,,,,,,,,,,,,,,,,,,,,,,,,,,,,,,,,,,,,,,,,,,,,,,,,,,,,,,,,,,,,,,,,,,,,,,,,,,,,,,,,,,,,,,,,,,,,
,,117478,031,1,2024-03-05_22h24.32.830,Memory and Syntax,2023.2.3,Win32,59.88023952,,,,,117.8659,119.8654,o,0,119.8654,119.8655,,0,,,119.8656,119.8658,,119.8658,119.8659,,0,38,38,38,1,cvmt/test_items/t39.jpeg,n,0.0624,,,,,,,,,,,,,,,,,,,,,,,,,,,,,,,,,,,,,,,,,,,,,,,,,,,,,,,,,,,,,,,,,,,,,,,,,,,,,,,,,,,,,,,,,,,,,,,,,,,,,,
,,117478,031,1,2024-03-05_22h24.32.830,Memory and Syntax,2023.2.3,Win32,59.88023952,,,,,119.866,121.8655,o,1,121.8656,121.8656,,0,,,121.8656,121.8658,,121.8658,121.8659,,0,39,39,39,1,cvmt/test_items/t40.jpeg,o,0.7811,,,,,,,,,,,,,,,,,,,,,,,,,,,,,,,,,,,,,,,,,,,,,,,,,,,,,,,,,,,,,,,,,,,,,,,,,,,,,,,,,,,,,,,,,,,,,,,,,,,,,,
,,117478,031,1,2024-03-05_22h24.32.830,Memory and Syntax,2023.2.3,Win32,59.88023952,,,,,121.866,123.8655,o,0,123.8655,123.8657,,0,,,123.8657,123.8658,,123.8658,123.8658,,0,40,40,40,1,cvmt/test_items/t41.jpeg,n,0.7354,,,,,,,,,,,,,,,,,,,,,,,,,,,,,,,,,,,,,,,,,,,,,,,,,,,,,,,,,,,,,,,,,,,,,,,,,,,,,,,,,,,,,,,,,,,,,,,,,,,,,,
,,117478,031,1,2024-03-05_22h24.32.830,Memory and Syntax,2023.2.3,Win32,59.88023952,,,,,123.8659,125.8654,n,0,125.8655,125.8656,,0,,,125.8656,125.8658,,125.8658,125.8658,,0,41,41,41,1,cvmt/test_items/t42.jpeg,o,0.2514,,,,,,,,,,,,,,,,,,,,,,,,,,,,,,,,,,,,,,,,,,,,,,,,,,,,,,,,,,,,,,,,,,,,,,,,,,,,,,,,,,,,,,,,,,,,,,,,,,,,,,
,,117478,031,1,2024-03-05_22h24.32.830,Memory and Syntax,2023.2.3,Win32,59.88023952,,,,,125.866,127.8655,o,1,127.8656,127.8656,,0,,,127.8656,127.8658,,127.8658,127.8658,,0,42,42,42,1,cvmt/test_items/t43.jpeg,o,0.2638,,,,,,,,,,,,,,,,,,,,,,,,,,,,,,,,,,,,,,,,,,,,,,,,,,,,,,,,,,,,,,,,,,,,,,,,,,,,,,,,,,,,,,,,,,,,,,,,,,,,,,
,,117478,031,1,2024-03-05_22h24.32.830,Memory and Syntax,2023.2.3,Win32,59.88023952,,,,,127.8659,129.8655,n,1,129.8655,129.8656,,0,,,129.8657,129.8658,,129.8658,129.8659,,0,43,43,43,1,cvmt/test_items/t44.jpeg,n,0.3697,,,,,,,,,,,,,,,,,,,,,,,,,,,,,,,,,,,,,,,,,,,,,,,,,,,,,,,,,,,,,,,,,,,,,,,,,,,,,,,,,,,,,,,,,,,,,,,,,,,,,,
,,117478,031,1,2024-03-05_22h24.32.830,Memory and Syntax,2023.2.3,Win32,59.88023952,,,,,129.8659,131.8653,o,1,131.8654,131.8655,,0,,,131.8655,131.8657,,131.8657,131.8657,,0,44,44,44,1,cvmt/test_items/t45.jpeg,o,0.3422,,,,,,,,,,,,,,,,,,,,,,,,,,,,,,,,,,,,,,,,,,,,,,,,,,,,,,,,,,,,,,,,,,,,,,,,,,,,,,,,,,,,,,,,,,,,,,,,,,,,,,
,,117478,031,1,2024-03-05_22h24.32.830,Memory and Syntax,2023.2.3,Win32,59.88023952,,,,,131.8659,133.8654,n,0,133.8654,133.8656,,0,,,133.8656,133.8657,,133.8657,133.8657,,0,45,45,45,1,cvmt/test_items/t46.jpeg,o,0.7656,,,,,,,,,,,,,,,,,,,,,,,,,,,,,,,,,,,,,,,,,,,,,,,,,,,,,,,,,,,,,,,,,,,,,,,,,,,,,,,,,,,,,,,,,,,,,,,,,,,,,,
,,117478,031,1,2024-03-05_22h24.32.830,Memory and Syntax,2023.2.3,Win32,59.88023952,,,,,133.8658,135.8655,o,1,135.8655,135.8656,,0,,,135.8656,135.8658,,135.8658,135.8658,,0,46,46,46,1,cvmt/test_items/t47.jpeg,o,0.2651,,,,,,,,,,,,,,,,,,,,,,,,,,,,,,,,,,,,,,,,,,,,,,,,,,,,,,,,,,,,,,,,,,,,,,,,,,,,,,,,,,,,,,,,,,,,,,,,,,,,,,
,,117478,031,1,2024-03-05_22h24.32.830,Memory and Syntax,2023.2.3,Win32,59.88023952,,,,,135.866,137.8654,o,0,137.8654,137.8655,,0,,,137.8655,137.8657,,137.8657,137.8657,,0,47,47,47,1,cvmt/test_items/t48.jpeg,n,0.3038,,,,,,,,,,,,,,,,,,,,,,,,,,,,,,,,,,,,,,,,,,,,,,,,,,,,,,,,,,,,,,,,,,,,,,,,,,,,,,,,,,,,,,,,,,,,,,,,,,,,,,
,,117478,031,1,2024-03-05_22h24.32.830,Memory and Syntax,2023.2.3,Win32,59.88023952,,,,,137.8658,139.8656,,0,139.8656,141.1821,o,1,1.307,,141.1821,141.1869,,141.187,141.187,,0,48,48,48,1,cvmt/test_items/t49.jpeg,o,,,,,,,,,,,,,,,,,,,,,,,,,,,,,,,,,,,,,,,,,,,,,,,,,,,,,,,,,,,,,,,,,,,,,,,,,,,,,,,,,,,,,,,,,,,,,,,,,,,,,,,
,,117478,031,1,2024-03-05_22h24.32.830,Memory and Syntax,2023.2.3,Win32,59.88023952,,,,,141.187,143.1821,n,0,143.1821,143.1831,,0,,,143.1831,143.1832,,143.1833,143.1833,,0,49,49,49,1,cvmt/test_items/t50.jpeg,o,1.6877,,,,,,,,,,,,,,,,,,,,,,,,,,,,,,,,,,,,,,,,,,,,,,,,,,,,,,,,,,,,,,,,,,,,,,,,,,,,,,,,,,,,,,,,,,,,,,,,,,,,,,
,,117478,031,1,2024-03-05_22h24.32.830,Memory and Syntax,2023.2.3,Win32,59.88023952,,,,,143.1834,145.1822,o,0,145.1822,145.1824,,0,,,145.1824,145.1826,,145.1827,145.1827,,0,50,50,50,1,cvmt/test_items/t51.jpeg,n,0.8376,,,,,,,,,,,,,,,,,,,,,,,,,,,,,,,,,,,,,,,,,,,,,,,,,,,,,,,,,,,,,,,,,,,,,,,,,,,,,,,,,,,,,,,,,,,,,,,,,,,,,,
,,117478,031,1,2024-03-05_22h24.32.830,Memory and Syntax,2023.2.3,Win32,59.88023952,,,,,145.1828,147.1821,,0,147.1821,149.0655,n,0,1.8736,,149.0655,149.0704,,149.0704,149.0704,,0,51,51,51,1,cvmt/test_items/t52.jpeg,o,,,,,,,,,,,,,,,,,,,,,,,,,,,,,,,,,,,,,,,,,,,,,,,,,,,,,,,,,,,,,,,,,,,,,,,,,,,,,,,,,,,,,,,,,,,,,,,,,,,,,,,
,,117478,031,1,2024-03-05_22h24.32.830,Memory and Syntax,2023.2.3,Win32,59.88023952,,,,,149.0705,151.0655,n,0,151.0655,151.0666,,0,,,151.0666,151.0668,,151.0668,151.0668,,0,52,52,52,1,cvmt/test_items/t53.jpeg,o,1.0282,,,,,,,,,,,,,,,,,,,,,,,,,,,,,,,,,,,,,,,,,,,,,,,,,,,,,,,,,,,,,,,,,,,,,,,,,,,,,,,,,,,,,,,,,,,,,,,,,,,,,,
,,117478,031,1,2024-03-05_22h24.32.830,Memory and Syntax,2023.2.3,Win32,59.88023952,,,,,151.0668,153.0657,n,0,153.0657,153.0657,,0,,,153.0657,153.066,,153.066,153.066,,0,53,53,53,1,cvmt/test_items/t54.jpeg,o,0.0223,,,,,,,,,,,,,,,,,,,,,,,,,,,,,,,,,,,,,,,,,,,,,,,,,,,,,,,,,,,,,,,,,,,,,,,,,,,,,,,,,,,,,,,,,,,,,,,,,,,,,,
,,117478,031,1,2024-03-05_22h24.32.830,Memory and Syntax,2023.2.3,Win32,59.88023952,,,,,153.0661,155.0653,o,1,155.0654,155.0655,,0,,,155.0655,155.0657,,155.0657,155.0658,,0,54,54,54,1,cvmt/test_items/t55.jpeg,o,0.5018,,,,,,,,,,,,,,,,,,,,,,,,,,,,,,,,,,,,,,,,,,,,,,,,,,,,,,,,,,,,,,,,,,,,,,,,,,,,,,,,,,,,,,,,,,,,,,,,,,,,,,
,,117478,031,1,2024-03-05_22h24.32.830,Memory and Syntax,2023.2.3,Win32,59.88023952,,,,,155.0659,157.0653,n,0,157.0654,157.0655,,0,,,157.0655,157.0659,,157.0659,157.0659,,0,55,55,55,1,cvmt/test_items/t56.jpeg,o,0.0004,,,,,,,,,,,,,,,,,,,,,,,,,,,,,,,,,,,,,,,,,,,,,,,,,,,,,,,,,,,,,,,,,,,,,,,,,,,,,,,,,,,,,,,,,,,,,,,,,,,,,,
,,117478,031,1,2024-03-05_22h24.32.830,Memory and Syntax,2023.2.3,Win32,59.88023952,,,,,157.066,159.0655,n,0,159.0655,159.0656,,0,,,159.0656,159.0658,,159.0658,159.0658,,0,56,56,56,1,cvmt/test_items/t57.jpeg,o,0.248,,,,,,,,,,,,,,,,,,,,,,,,,,,,,,,,,,,,,,,,,,,,,,,,,,,,,,,,,,,,,,,,,,,,,,,,,,,,,,,,,,,,,,,,,,,,,,,,,,,,,,
,,117478,031,1,2024-03-05_22h24.32.830,Memory and Syntax,2023.2.3,Win32,59.88023952,,,,,159.0659,161.0654,o,0,161.0655,161.0655,,0,,,161.0655,161.0658,,161.0658,161.0658,,0,57,57,57,1,cvmt/test_items/t58.jpeg,n,0.0003,,,,,,,,,,,,,,,,,,,,,,,,,,,,,,,,,,,,,,,,,,,,,,,,,,,,,,,,,,,,,,,,,,,,,,,,,,,,,,,,,,,,,,,,,,,,,,,,,,,,,,
,,117478,031,1,2024-03-05_22h24.32.830,Memory and Syntax,2023.2.3,Win32,59.88023952,,,,,161.0659,163.0655,o,0,163.0655,163.0656,,0,,,163.0656,163.0659,,163.0659,163.0659,,0,58,58,58,1,cvmt/test_items/t59.jpeg,n,0.1329,,,,,,,,,,,,,,,,,,,,,,,,,,,,,,,,,,,,,,,,,,,,,,,,,,,,,,,,,,,,,,,,,,,,,,,,,,,,,,,,,,,,,,,,,,,,,,,,,,,,,,
,,117478,031,1,2024-03-05_22h24.32.830,Memory and Syntax,2023.2.3,Win32,59.88023952,,,,,163.0659,165.0654,n,0,165.0654,165.0656,,0,,,165.0656,165.0657,,165.0657,165.0657,,0,59,59,59,1,cvmt/test_items/t60.jpeg,o,0.2367,,,,,,,,,,,,,,,,,,,,,,,,,,,,,,,,,,,,,,,,,,,,,,,,,,,,,,,,,,,,,,,,,,,,,,,,,,,,,,,,,,,,,,,,,,,,,,,,,,,,,,
,,117478,031,1,2024-03-05_22h24.32.830,Memory and Syntax,2023.2.3,Win32,59.88023952,,,,,165.0659,167.0655,o,1,167.0656,167.0657,,0,,,167.0657,167.0659,,167.0659,167.0659,,0,60,60,60,1,cvmt/test_items/t61.jpeg,o,0.4813,,,,,,,,,,,,,,,,,,,,,,,,,,,,,,,,,,,,,,,,,,,,,,,,,,,,,,,,,,,,,,,,,,,,,,,,,,,,,,,,,,,,,,,,,,,,,,,,,,,,,,
,,117478,031,1,2024-03-05_22h24.32.830,Memory and Syntax,2023.2.3,Win32,59.88023952,,,,,167.066,169.0655,n,0,169.0656,169.0656,,0,,,169.0656,169.0658,,169.0658,169.0658,,0,61,61,61,1,cvmt/test_items/t62.jpeg,o,0.2892,,,,,,,,,,,,,,,,,,,,,,,,,,,,,,,,,,,,,,,,,,,,,,,,,,,,,,,,,,,,,,,,,,,,,,,,,,,,,,,,,,,,,,,,,,,,,,,,,,,,,,
,,117478,031,1,2024-03-05_22h24.32.830,Memory and Syntax,2023.2.3,Win32,59.88023952,,,,,169.0659,171.0655,o,1,171.0655,171.0656,,0,,,171.0656,171.0658,,171.0658,171.0658,,0,62,62,62,1,cvmt/test_items/t63.jpeg,o,0.4354,,,,,,,,,,,,,,,,,,,,,,,,,,,,,,,,,,,,,,,,,,,,,,,,,,,,,,,,,,,,,,,,,,,,,,,,,,,,,,,,,,,,,,,,,,,,,,,,,,,,,,
,,117478,031,1,2024-03-05_22h24.32.830,Memory and Syntax,2023.2.3,Win32,59.88023952,,,,,171.0659,173.0655,n,0,173.0655,173.0657,,0,,,173.0657,173.0658,,173.0658,173.0659,,0,63,63,63,1,cvmt/test_items/t64.jpeg,o,0.3715,,,,,,,,,,,,,,,,,,,,,,,,,,,,,,,,,,,,,,,,,,,,,,,,,,,,,,,,,,,,,,,,,,,,,,,,,,,,,,,,,,,,,,,,,,,,,,,,,,,,,,
,,117478,031,1,2024-03-05_22h24.32.830,Memory and Syntax,2023.2.3,Win32,59.88023952,,,,,173.0659,175.0655,n,0,175.0655,175.0656,,0,,,175.0656,175.0658,,175.0658,175.0658,,0,64,64,64,1,cvmt/test_items/t65.jpeg,o,0.3236,,,,,,,,,,,,,,,,,,,,,,,,,,,,,,,,,,,,,,,,,,,,,,,,,,,,,,,,,,,,,,,,,,,,,,,,,,,,,,,,,,,,,,,,,,,,,,,,,,,,,,
,,117478,031,1,2024-03-05_22h24.32.830,Memory and Syntax,2023.2.3,Win32,59.88023952,,,,,175.0659,177.0654,n,0,177.0655,177.0657,,0,,,177.0657,177.0658,,177.0658,177.0658,,0,65,65,65,1,cvmt/test_items/t66.jpeg,o,0.2914,,,,,,,,,,,,,,,,,,,,,,,,,,,,,,,,,,,,,,,,,,,,,,,,,,,,,,,,,,,,,,,,,,,,,,,,,,,,,,,,,,,,,,,,,,,,,,,,,,,,,,
,,117478,031,1,2024-03-05_22h24.32.830,Memory and Syntax,2023.2.3,Win32,59.88023952,,,,,177.0659,179.0656,o,0,179.0656,179.0658,,0,,,179.0658,179.0659,,179.0659,179.0659,,0,66,66,66,1,cvmt/test_items/t67.jpeg,n,0.8748,,,,,,,,,,,,,,,,,,,,,,,,,,,,,,,,,,,,,,,,,,,,,,,,,,,,,,,,,,,,,,,,,,,,,,,,,,,,,,,,,,,,,,,,,,,,,,,,,,,,,,
,,117478,031,1,2024-03-05_22h24.32.830,Memory and Syntax,2023.2.3,Win32,59.88023952,,,,,179.0661,181.0655,n,0,181.0656,181.0656,,0,,,181.0657,181.0659,,181.0659,181.0659,,0,67,67,67,1,cvmt/test_items/t68.jpeg,o,0.2589,,,,,,,,,,,,,,,,,,,,,,,,,,,,,,,,,,,,,,,,,,,,,,,,,,,,,,,,,,,,,,,,,,,,,,,,,,,,,,,,,,,,,,,,,,,,,,,,,,,,,,
,,117478,031,1,2024-03-05_22h24.32.830,Memory and Syntax,2023.2.3,Win32,59.88023952,,,,,181.066,183.0655,o,1,183.0656,183.0657,,0,,,183.0657,183.0659,,183.0659,183.0659,,0,68,68,68,1,cvmt/test_items/t69.jpeg,o,0.1337,,,,,,,,,,,,,,,,,,,,,,,,,,,,,,,,,,,,,,,,,,,,,,,,,,,,,,,,,,,,,,,,,,,,,,,,,,,,,,,,,,,,,,,,,,,,,,,,,,,,,,
,,117478,031,1,2024-03-05_22h24.32.830,Memory and Syntax,2023.2.3,Win32,59.88023952,,,,,183.066,185.0655,n,0,185.0655,185.0656,,0,,,185.0656,185.0658,,185.0658,185.0658,,0,69,69,69,1,cvmt/test_items/t70.jpeg,o,0.0003,,,,,,,,,,,,,,,,,,,,,,,,,,,,,,,,,,,,,,,,,,,,,,,,,,,,,,,,,,,,,,,,,,,,,,,,,,,,,,,,,,,,,,,,,,,,,,,,,,,,,,
,,117478,031,1,2024-03-05_22h24.32.830,Memory and Syntax,2023.2.3,Win32,59.88023952,,,,,185.0659,187.0655,o,0,187.0656,187.0656,,0,,,187.0657,187.0659,,187.066,187.066,,0,70,70,70,1,cvmt/test_items/t71.jpeg,n,0.3553,,,,,,,,,,,,,,,,,,,,,,,,,,,,,,,,,,,,,,,,,,,,,,,,,,,,,,,,,,,,,,,,,,,,,,,,,,,,,,,,,,,,,,,,,,,,,,,,,,,,,,
,,117478,031,1,2024-03-05_22h24.32.830,Memory and Syntax,2023.2.3,Win32,59.88023952,,,,,187.0661,189.0655,o,1,189.0655,189.0656,,0,,,189.0656,189.0658,,189.0658,189.0658,,0,71,71,71,1,cvmt/test_items/t72.jpeg,o,0.8096,,,,,,,,,,,,,,,,,,,,,,,,,,,,,,,,,,,,,,,,,,,,,,,,,,,,,,,,,,,,,,,,,,,,,,,,,,,,,,,,,,,,,,,,,,,,,,,,,,,,,,
,,117478,031,1,2024-03-05_22h24.32.830,Memory and Syntax,2023.2.3,Win32,59.88023952,,,,,189.066,191.0654,n,0,191.0655,191.0656,,0,,,191.0656,191.0659,,191.0659,191.0659,,0,72,72,72,1,cvmt/test_items/t73.jpeg,o,0.2537,,,,,,,,,,,,,,,,,,,,,,,,,,,,,,,,,,,,,,,,,,,,,,,,,,,,,,,,,,,,,,,,,,,,,,,,,,,,,,,,,,,,,,,,,,,,,,,,,,,,,,
,,117478,031,1,2024-03-05_22h24.32.830,Memory and Syntax,2023.2.3,Win32,59.88023952,,,,,191.066,193.0655,n,0,193.0655,193.0655,,0,,,193.0655,193.0658,,193.0658,193.0658,,0,73,73,73,1,cvmt/test_items/t74.jpeg,o,0.5514,,,,,,,,,,,,,,,,,,,,,,,,,,,,,,,,,,,,,,,,,,,,,,,,,,,,,,,,,,,,,,,,,,,,,,,,,,,,,,,,,,,,,,,,,,,,,,,,,,,,,,
,,117478,031,1,2024-03-05_22h24.32.830,Memory and Syntax,2023.2.3,Win32,59.88023952,,,,,193.0659,195.0654,o,1,195.0654,195.0655,,0,,,195.0655,195.0657,,195.0657,195.0657,,0,74,74,74,1,cvmt/test_items/t75.jpeg,o,0.5312,,,,,,,,,,,,,,,,,,,,,,,,,,,,,,,,,,,,,,,,,,,,,,,,,,,,,,,,,,,,,,,,,,,,,,,,,,,,,,,,,,,,,,,,,,,,,,,,,,,,,,
,,117478,031,1,2024-03-05_22h24.32.830,Memory and Syntax,2023.2.3,Win32,59.88023952,,,,,195.0659,197.0655,o,1,197.0655,197.0656,,0,,,197.0656,197.0659,,197.0659,197.066,,0,75,75,75,1,cvmt/test_items/t76.jpeg,o,0.7454,,,,,,,,,,,,,,,,,,,,,,,,,,,,,,,,,,,,,,,,,,,,,,,,,,,,,,,,,,,,,,,,,,,,,,,,,,,,,,,,,,,,,,,,,,,,,,,,,,,,,,
,,117478,031,1,2024-03-05_22h24.32.830,Memory and Syntax,2023.2.3,Win32,59.88023952,,,,,197.066,199.0654,n,0,199.0654,199.0656,,0,,,199.0656,199.0658,,199.0658,199.0659,,0,76,76,76,1,cvmt/test_items/t77.jpeg,o,0.7971,,,,,,,,,,,,,,,,,,,,,,,,,,,,,,,,,,,,,,,,,,,,,,,,,,,,,,,,,,,,,,,,,,,,,,,,,,,,,,,,,,,,,,,,,,,,,,,,,,,,,,
,,117478,031,1,2024-03-05_22h24.32.830,Memory and Syntax,2023.2.3,Win32,59.88023952,,,,,199.0661,201.0655,n,0,201.0656,201.0657,,0,,,201.0657,201.0659,,201.0659,201.0659,,0,77,77,77,1,cvmt/test_items/t78.jpeg,o,0.7653,,,,,,,,,,,,,,,,,,,,,,,,,,,,,,,,,,,,,,,,,,,,,,,,,,,,,,,,,,,,,,,,,,,,,,,,,,,,,,,,,,,,,,,,,,,,,,,,,,,,,,
,,117478,031,1,2024-03-05_22h24.32.830,Memory and Syntax,2023.2.3,Win32,59.88023952,,,,,201.066,203.0655,o,1,203.0655,203.0656,,0,,,203.0656,203.0658,,203.0658,203.0659,,0,78,78,78,1,cvmt/test_items/t79.jpeg,o,0.2367,,,,,,,,,,,,,,,,,,,,,,,,,,,,,,,,,,,,,,,,,,,,,,,,,,,,,,,,,,,,,,,,,,,,,,,,,,,,,,,,,,,,,,,,,,,,,,,,,,,,,,
,,117478,031,1,2024-03-05_22h24.32.830,Memory and Syntax,2023.2.3,Win32,59.88023952,,,,,203.066,205.0655,n,1,205.0655,205.0657,,0,,,205.0657,205.0659,,205.0659,205.0659,,0,79,79,79,1,cvmt/test_items/t80.jpeg,n,0.5337,,,,,,,,,,,,,,,,,,,,,,,,,,,,,,,,,,,,,,,,,,,,,,,,,,,,,,,,,,,,,,,,,,,,,,,,,,,,,,,,,,,,,,,,,,,,,,,,,,,,,,
,,117478,031,1,2024-03-05_22h24.32.830,Memory and Syntax,2023.2.3,Win32,59.88023952,,,,,205.066,207.0655,o,1,207.0655,207.0656,,0,,,207.0656,207.066,,207.066,207.066,,0,80,80,80,1,cvmt/test_items/t81.jpeg,o,0.2398,,,,,,,,,,,,,,,,,,,,,,,,,,,,,,,,,,,,,,,,,,,,,,,,,,,,,,,,,,,,,,,,,,,,,,,,,,,,,,,,,,,,,,,,,,,,,,,,,,,,,,
,,117478,031,1,2024-03-05_22h24.32.830,Memory and Syntax,2023.2.3,Win32,59.88023952,,,,,207.0661,209.0654,o,1,209.0655,209.0656,,0,,,209.0656,209.0658,,209.0658,209.0658,,0,81,81,81,1,cvmt/test_items/t82.jpeg,o,0.5138,,,,,,,,,,,,,,,,,,,,,,,,,,,,,,,,,,,,,,,,,,,,,,,,,,,,,,,,,,,,,,,,,,,,,,,,,,,,,,,,,,,,,,,,,,,,,,,,,,,,,,
,,117478,031,1,2024-03-05_22h24.32.830,Memory and Syntax,2023.2.3,Win32,59.88023952,,,,,209.0659,211.0655,o,1,211.0655,211.0656,,0,,,211.0656,211.0659,,211.0659,211.0659,,0,82,82,82,1,cvmt/test_items/t83.jpeg,o,0.7191,,,,,,,,,,,,,,,,,,,,,,,,,,,,,,,,,,,,,,,,,,,,,,,,,,,,,,,,,,,,,,,,,,,,,,,,,,,,,,,,,,,,,,,,,,,,,,,,,,,,,,
,,117478,031,1,2024-03-05_22h24.32.830,Memory and Syntax,2023.2.3,Win32,59.88023952,,,,,211.066,213.0655,n,0,213.0656,213.0657,,0,,,213.0657,213.0658,,213.0659,213.0659,,0,83,83,83,1,cvmt/test_items/t84.jpeg,o,0.1858,,,,,,,,,,,,,,,,,,,,,,,,,,,,,,,,,,,,,,,,,,,,,,,,,,,,,,,,,,,,,,,,,,,,,,,,,,,,,,,,,,,,,,,,,,,,,,,,,,,,,,
,,117478,031,1,2024-03-05_22h24.32.830,Memory and Syntax,2023.2.3,Win32,59.88023952,,,,,213.0659,215.0657,n,0,215.0657,215.0658,,0,,,215.0658,215.066,,215.066,215.066,,0,84,84,84,1,cvmt/test_items/t85.jpeg,o,1.1976,,,,,,,,,,,,,,,,,,,,,,,,,,,,,,,,,,,,,,,,,,,,,,,,,,,,,,,,,,,,,,,,,,,,,,,,,,,,,,,,,,,,,,,,,,,,,,,,,,,,,,
,,117478,031,1,2024-03-05_22h24.32.830,Memory and Syntax,2023.2.3,Win32,59.88023952,,,,,215.0661,217.0656,o,1,217.0656,217.0657,,0,,,217.0657,217.0658,,217.0659,217.0659,,0,85,85,85,1,cvmt/test_items/t86.jpeg,o,0.6535,,,,,,,,,,,,,,,,,,,,,,,,,,,,,,,,,,,,,,,,,,,,,,,,,,,,,,,,,,,,,,,,,,,,,,,,,,,,,,,,,,,,,,,,,,,,,,,,,,,,,,
,,117478,031,1,2024-03-05_22h24.32.830,Memory and Syntax,2023.2.3,Win32,59.88023952,,,,,217.066,219.0656,o,1,219.0656,219.0657,,0,,,219.0657,219.0658,,219.0658,219.0659,,0,86,86,86,1,cvmt/test_items/t87.jpeg,o,1.4158,,,,,,,,,,,,,,,,,,,,,,,,,,,,,,,,,,,,,,,,,,,,,,,,,,,,,,,,,,,,,,,,,,,,,,,,,,,,,,,,,,,,,,,,,,,,,,,,,,,,,,
,,117478,031,1,2024-03-05_22h24.32.830,Memory and Syntax,2023.2.3,Win32,59.88023952,,,,,219.0659,221.0655,o,0,221.0655,221.0656,,0,,,221.0656,221.0658,,221.0658,221.0659,,0,87,87,87,1,cvmt/test_items/t88.jpeg,n,0.8314,,,,,,,,,,,,,,,,,,,,,,,,,,,,,,,,,,,,,,,,,,,,,,,,,,,,,,,,,,,,,,,,,,,,,,,,,,,,,,,,,,,,,,,,,,,,,,,,,,,,,,
,,117478,031,1,2024-03-05_22h24.32.830,Memory and Syntax,2023.2.3,Win32,59.88023952,,,,,221.066,223.0657,o,0,223.0658,223.0659,,0,,,223.066,223.0662,,223.0663,223.0664,,0,88,88,88,1,cvmt/test_items/t89.jpeg,n,0.608,,,,,,,,,,,,,,,,,,,,,,,,,,,,,,,,,,,,,,,,,,,,,,,,,,,,,,,,,,,,,,,,,,,,,,,,,,,,,,,,,,,,,,,,,,,,,,,,,,,,,,
,,117478,031,1,2024-03-05_22h24.32.830,Memory and Syntax,2023.2.3,Win32,59.88023952,,,,,223.0665,225.0656,o,1,225.0656,225.0658,,0,,,225.0658,225.066,,225.066,225.066,,0,89,89,89,1,cvmt/test_items/t90.jpeg,o,0.7876,,,,,,,,,,,,,,,,,,,,,,,,,,,,,,,,,,,,,,,,,,,,,,,,,,,,,,,,,,,,,,,,,,,,,,,,,,,,,,,,,,,,,,,,,,,,,,,,,,,,,,
,,117478,031,1,2024-03-05_22h24.32.830,Memory and Syntax,2023.2.3,Win32,59.88023952,,,,,225.0661,227.0655,n,0,227.0655,227.0656,,0,,,227.0656,227.0659,,227.0659,227.0659,,0,90,90,90,1,cvmt/test_items/t91.jpeg,o,0.6698,,,,,,,,,,,,,,,,,,,,,,,,,,,,,,,,,,,,,,,,,,,,,,,,,,,,,,,,,,,,,,,,,,,,,,,,,,,,,,,,,,,,,,,,,,,,,,,,,,,,,,
,,117478,031,1,2024-03-05_22h24.32.830,Memory and Syntax,2023.2.3,Win32,59.88023952,,,,,227.0661,229.0655,n,0,229.0656,229.0656,,0,,,229.0656,229.0659,,229.0659,229.0659,,0,91,91,91,1,cvmt/test_items/t92.jpeg,o,0.9143,,,,,,,,,,,,,,,,,,,,,,,,,,,,,,,,,,,,,,,,,,,,,,,,,,,,,,,,,,,,,,,,,,,,,,,,,,,,,,,,,,,,,,,,,,,,,,,,,,,,,,
,,117478,031,1,2024-03-05_22h24.32.830,Memory and Syntax,2023.2.3,Win32,59.88023952,,,,,229.066,231.0655,o,1,231.0655,231.0656,,0,,,231.0656,231.0659,,231.0659,231.0659,,0,92,92,92,1,cvmt/test_items/t93.jpeg,o,1.1096,,,,,,,,,,,,,,,,,,,,,,,,,,,,,,,,,,,,,,,,,,,,,,,,,,,,,,,,,,,,,,,,,,,,,,,,,,,,,,,,,,,,,,,,,,,,,,,,,,,,,,
,,117478,031,1,2024-03-05_22h24.32.830,Memory and Syntax,2023.2.3,Win32,59.88023952,,,,,231.066,233.0656,n,0,233.0656,233.0657,,0,,,233.0657,233.066,,233.066,233.066,,0,93,93,93,1,cvmt/test_items/t94.jpeg,o,0.8088,,,,,,,,,,,,,,,,,,,,,,,,,,,,,,,,,,,,,,,,,,,,,,,,,,,,,,,,,,,,,,,,,,,,,,,,,,,,,,,,,,,,,,,,,,,,,,,,,,,,,,
,,117478,031,1,2024-03-05_22h24.32.830,Memory and Syntax,2023.2.3,Win32,59.88023952,,,,,233.0661,235.0655,o,1,235.0656,235.0656,,0,,,235.0657,235.0658,,235.0658,235.0659,,0,94,94,94,1,cvmt/test_items/t95.jpeg,o,0.5834,,,,,,,,,,,,,,,,,,,,,,,,,,,,,,,,,,,,,,,,,,,,,,,,,,,,,,,,,,,,,,,,,,,,,,,,,,,,,,,,,,,,,,,,,,,,,,,,,,,,,,
,,117478,031,1,2024-03-05_22h24.32.830,Memory and Syntax,2023.2.3,Win32,59.88023952,,,,,235.066,237.0655,n,0,237.0655,237.0656,,0,,,237.0656,237.0659,,237.0659,237.0659,,0,95,95,95,1,cvmt/test_items/t96.jpeg,o,0.0987,,,,,,,,,,,,,,,,,,,,,,,,,,,,,,,,,,,,,,,,,,,,,,,,,,,,,,,,,,,,,,,,,,,,,,,,,,,,,,,,,,,,,,,,,,,,,,,,,,,,,,
,,117478,031,1,2024-03-05_22h24.32.830,Memory and Syntax,2023.2.3,Win32,59.88023952,,,,,237.0661,239.0655,o,1,239.0655,239.0656,,0,,,239.0656,239.0659,,239.0659,239.0659,,0,96,96,96,1,cvmt/test_items/t97.jpeg,o,1.3855,,,,,,,,,,,,,,,,,,,,,,,,,,,,,,,,,,,,,,,,,,,,,,,,,,,,,,,,,,,,,,,,,,,,,,,,,,,,,,,,,,,,,,,,,,,,,,,,,,,,,,
,,117478,031,1,2024-03-05_22h24.32.830,Memory and Syntax,2023.2.3,Win32,59.88023952,,,,,239.0659,241.0655,n,1,241.0655,241.0656,,0,,,241.0656,241.0658,,241.0658,241.0658,,0,97,97,97,1,cvmt/test_items/t98.jpeg,n,0.5818,,,,,,,,,,,,,,,,,,,,,,,,,,,,,,,,,,,,,,,,,,,,,,,,,,,,,,,,,,,,,,,,,,,,,,,,,,,,,,,,,,,,,,,,,,,,,,,,,,,,,,
,,117478,031,1,2024-03-05_22h24.32.830,Memory and Syntax,2023.2.3,Win32,59.88023952,,,,,241.066,243.0656,o,1,243.0656,243.0657,,0,,,243.0657,243.0658,,243.0658,243.0659,,0,98,98,98,1,cvmt/test_items/t99.jpeg,o,0.6532,,,,,,,,,,,,,,,,,,,,,,,,,,,,,,,,,,,,,,,,,,,,,,,,,,,,,,,,,,,,,,,,,,,,,,,,,,,,,,,,,,,,,,,,,,,,,,,,,,,,,,
,,117478,031,1,2024-03-05_22h24.32.830,Memory and Syntax,2023.2.3,Win32,59.88023952,,,,,243.066,245.0655,o,1,245.0655,245.0656,,0,,,245.0656,245.0658,,245.0658,245.0658,,0,99,99,99,1,cvmt/test_items/t100.jpeg,o,0.9067,,,,,,,,,,,,,,,,,,,,,,,,,,,,,,,,,,,,,,,,,,,,,,,,,,,,,,,,,,,,,,,,,,,,,,,,,,,,,,,,,,,,,,,,,,,,,,,,,,,,,,
,,117478,031,1,2024-03-05_22h24.32.830,Memory and Syntax,2023.2.3,Win32,59.88023952,,,,,245.066,247.0656,o,1,247.0657,247.0657,,0,,,247.0657,247.0659,,247.0659,247.066,,0,100,100,100,1,cvmt/test_items/t101.jpeg,o,0.2168,,,,,,,,,,,,,,,,,,,,,,,,,,,,,,,,,,,,,,,,,,,,,,,,,,,,,,,,,,,,,,,,,,,,,,,,,,,,,,,,,,,,,,,,,,,,,,,,,,,,,,
,,117478,031,1,2024-03-05_22h24.32.830,Memory and Syntax,2023.2.3,Win32,59.88023952,,,,,247.0661,249.0655,o,1,249.0656,249.0657,,0,,,249.0657,249.0659,,249.0659,249.0659,,0,101,101,101,1,cvmt/test_items/t102.jpeg,o,0.4735,,,,,,,,,,,,,,,,,,,,,,,,,,,,,,,,,,,,,,,,,,,,,,,,,,,,,,,,,,,,,,,,,,,,,,,,,,,,,,,,,,,,,,,,,,,,,,,,,,,,,,
,,117478,031,1,2024-03-05_22h24.32.830,Memory and Syntax,2023.2.3,Win32,59.88023952,,,,,249.066,251.0656,o,1,251.0656,251.0657,,0,,,251.0657,251.0659,,251.0659,251.0659,,0,102,102,102,1,cvmt/test_items/t103.jpeg,o,0.4833,,,,,,,,,,,,,,,,,,,,,,,,,,,,,,,,,,,,,,,,,,,,,,,,,,,,,,,,,,,,,,,,,,,,,,,,,,,,,,,,,,,,,,,,,,,,,,,,,,,,,,
,,117478,031,1,2024-03-05_22h24.32.830,Memory and Syntax,2023.2.3,Win32,59.88023952,,,,,251.066,253.0656,o,1,253.0656,253.0657,,0,,,253.0657,253.0661,,253.0661,253.0661,,0,103,103,103,1,cvmt/test_items/t104.jpeg,o,0.5147,,,,,,,,,,,,,,,,,,,,,,,,,,,,,,,,,,,,,,,,,,,,,,,,,,,,,,,,,,,,,,,,,,,,,,,,,,,,,,,,,,,,,,,,,,,,,,,,,,,,,,
,,117478,031,1,2024-03-05_22h24.32.830,Memory and Syntax,2023.2.3,Win32,59.88023952,,,,,253.0661,255.0656,o,0,255.0656,255.0657,,0,,,255.0657,255.066,,255.066,255.066,,0,104,104,104,1,cvmt/test_items/t105.jpeg,n,0.2404,,,,,,,,,,,,,,,,,,,,,,,,,,,,,,,,,,,,,,,,,,,,,,,,,,,,,,,,,,,,,,,,,,,,,,,,,,,,,,,,,,,,,,,,,,,,,,,,,,,,,,
,,117478,031,1,2024-03-05_22h24.32.830,Memory and Syntax,2023.2.3,Win32,59.88023952,,,,,255.0661,257.0656,o,1,257.0656,257.0658,,0,,,257.0658,257.0659,,257.0659,257.066,,0,105,105,105,1,cvmt/test_items/t106.jpeg,o,0.6327,,,,,,,,,,,,,,,,,,,,,,,,,,,,,,,,,,,,,,,,,,,,,,,,,,,,,,,,,,,,,,,,,,,,,,,,,,,,,,,,,,,,,,,,,,,,,,,,,,,,,,
,,117478,031,1,2024-03-05_22h24.32.830,Memory and Syntax,2023.2.3,Win32,59.88023952,,,,,257.0661,259.0656,o,1,259.0656,259.0658,,0,,,259.0658,259.066,,259.066,259.066,,0,106,106,106,1,cvmt/test_items/t107.jpeg,o,0.6476,,,,,,,,,,,,,,,,,,,,,,,,,,,,,,,,,,,,,,,,,,,,,,,,,,,,,,,,,,,,,,,,,,,,,,,,,,,,,,,,,,,,,,,,,,,,,,,,,,,,,,
,,117478,031,1,2024-03-05_22h24.32.830,Memory and Syntax,2023.2.3,Win32,59.88023952,,,,,259.066,261.0656,n,0,261.0656,261.0657,,0,,,261.0657,261.0659,,261.0659,261.066,,0,107,107,107,1,cvmt/test_items/t108.jpeg,o,0.8229,,,,,,,,,,,,,,,,,,,,,,,,,,,,,,,,,,,,,,,,,,,,,,,,,,,,,,,,,,,,,,,,,,,,,,,,,,,,,,,,,,,,,,,,,,,,,,,,,,,,,,
,,117478,031,1,2024-03-05_22h24.32.830,Memory and Syntax,2023.2.3,Win32,59.88023952,,,,,261.0661,263.0656,,0,263.0657,264.0656,n,0,0.9824,,264.0656,264.0658,,264.0658,264.0659,,0,108,108,108,1,cvmt/test_items/t109.jpeg,o,,,,,,,,,,,,,,,,,,,,,,,,,,,,,,,,,,,,,,,,,,,,,,,,,,,,,,,,,,,,,,,,,,,,,,,,,,,,,,,,,,,,,,,,,,,,,,,,,,,,,,,
,,117478,031,1,2024-03-05_22h24.32.830,Memory and Syntax,2023.2.3,Win32,59.88023952,,,,,264.066,266.0656,o,1,266.0656,266.0657,,0,,,266.0657,266.0659,,266.0659,266.066,,0,109,109,109,1,cvmt/test_items/t110.jpeg,o,1.1199,,,,,,,,,,,,,,,,,,,,,,,,,,,,,,,,,,,,,,,,,,,,,,,,,,,,,,,,,,,,,,,,,,,,,,,,,,,,,,,,,,,,,,,,,,,,,,,,,,,,,,
,,117478,031,1,2024-03-05_22h24.32.830,Memory and Syntax,2023.2.3,Win32,59.88023952,,,,,266.066,268.0656,n,0,268.0656,268.0657,,0,,,268.0657,268.0659,,268.0659,268.0659,,0,110,110,110,1,cvmt/test_items/t111.jpeg,o,0.3142,,,,,,,,,,,,,,,,,,,,,,,,,,,,,,,,,,,,,,,,,,,,,,,,,,,,,,,,,,,,,,,,,,,,,,,,,,,,,,,,,,,,,,,,,,,,,,,,,,,,,,
,,117478,031,1,2024-03-05_22h24.32.830,Memory and Syntax,2023.2.3,Win32,59.88023952,,,,,268.0659,270.0656,o,1,270.0656,270.0657,,0,,,270.0657,270.0659,,270.0659,270.0659,,0,111,111,111,1,cvmt/test_items/t112.jpeg,o,0.667,,,,,,,,,,,,,,,,,,,,,,,,,,,,,,,,,,,,,,,,,,,,,,,,,,,,,,,,,,,,,,,,,,,,,,,,,,,,,,,,,,,,,,,,,,,,,,,,,,,,,,
,,117478,031,1,2024-03-05_22h24.32.830,Memory and Syntax,2023.2.3,Win32,59.88023952,,,,,270.066,272.0656,o,0,272.0656,272.0657,,0,,,272.0657,272.0659,,272.0659,272.0659,,0,112,112,112,1,cvmt/test_items/t113.jpeg,n,0.903,,,,,,,,,,,,,,,,,,,,,,,,,,,,,,,,,,,,,,,,,,,,,,,,,,,,,,,,,,,,,,,,,,,,,,,,,,,,,,,,,,,,,,,,,,,,,,,,,,,,,,
,,117478,031,1,2024-03-05_22h24.32.830,Memory and Syntax,2023.2.3,Win32,59.88023952,,,,,272.0661,274.0655,o,1,274.0655,274.0658,,0,,,274.0658,274.066,,274.066,274.066,,0,113,113,113,1,cvmt/test_items/t114.jpeg,o,1.1522,,,,,,,,,,,,,,,,,,,,,,,,,,,,,,,,,,,,,,,,,,,,,,,,,,,,,,,,,,,,,,,,,,,,,,,,,,,,,,,,,,,,,,,,,,,,,,,,,,,,,,
,,117478,031,1,2024-03-05_22h24.32.830,Memory and Syntax,2023.2.3,Win32,59.88023952,,,,,274.0662,276.0655,o,1,276.0656,276.0657,,0,,,276.0657,276.0659,,276.0659,276.0659,,0,114,114,114,1,cvmt/test_items/t115.jpeg,o,1.0894,,,,,,,,,,,,,,,,,,,,,,,,,,,,,,,,,,,,,,,,,,,,,,,,,,,,,,,,,,,,,,,,,,,,,,,,,,,,,,,,,,,,,,,,,,,,,,,,,,,,,,
,,117478,031,1,2024-03-05_22h24.32.830,Memory and Syntax,2023.2.3,Win32,59.88023952,,,,,276.066,278.0655,n,0,278.0655,278.0657,,0,,,278.0657,278.0658,,278.0658,278.0658,,0,115,115,115,1,cvmt/test_items/t116.jpeg,o,1.0736,,,,,,,,,,,,,,,,,,,,,,,,,,,,,,,,,,,,,,,,,,,,,,,,,,,,,,,,,,,,,,,,,,,,,,,,,,,,,,,,,,,,,,,,,,,,,,,,,,,,,,
,,117478,031,1,2024-03-05_22h24.32.830,Memory and Syntax,2023.2.3,Win32,59.88023952,,,,,278.0659,280.0657,o,1,280.0657,280.0658,,0,,,280.0658,280.066,,280.066,280.066,,0,116,116,116,1,cvmt/test_items/t117.jpeg,o,0.5917,,,,,,,,,,,,,,,,,,,,,,,,,,,,,,,,,,,,,,,,,,,,,,,,,,,,,,,,,,,,,,,,,,,,,,,,,,,,,,,,,,,,,,,,,,,,,,,,,,,,,,
,,117478,031,1,2024-03-05_22h24.32.830,Memory and Syntax,2023.2.3,Win32,59.88023952,,,,,280.0661,282.0656,o,1,282.0656,282.0657,,0,,,282.0657,282.066,,282.066,282.066,,0,117,117,117,1,cvmt/test_items/t118.jpeg,o,0.5817,,,,,,,,,,,,,,,,,,,,,,,,,,,,,,,,,,,,,,,,,,,,,,,,,,,,,,,,,,,,,,,,,,,,,,,,,,,,,,,,,,,,,,,,,,,,,,,,,,,,,,
,,117478,031,1,2024-03-05_22h24.32.830,Memory and Syntax,2023.2.3,Win32,59.88023952,,,,,282.0661,284.0656,o,1,284.0657,284.0658,,0,,,284.0658,284.066,,284.066,284.066,,0,118,118,118,1,cvmt/test_items/t119.jpeg,o,0.694,,,,,,,,,,,,,,,,,,,,,,,,,,,,,,,,,,,,,,,,,,,,,,,,,,,,,,,,,,,,,,,,,,,,,,,,,,,,,,,,,,,,,,,,,,,,,,,,,,,,,,
,,117478,031,1,2024-03-05_22h24.32.830,Memory and Syntax,2023.2.3,Win32,59.88023952,,,,,284.0661,286.0657,o,1,286.0657,286.0658,,0,,,286.0658,286.066,,286.066,286.0661,,0,119,119,119,1,cvmt/test_items/t120.jpeg,o,1.8824,,,,,,,,,,,,,,,,,,,,,,,,,,,,,,,,,,,,,,,,,,,,,,,,,,,,,,,,,,,,,,,,,,,,,,,,,,,,,,,,,,,,,,,,,,,,,,,,,,,,,,
,,117478,031,1,2024-03-05_22h24.32.830,Memory and Syntax,2023.2.3,Win32,59.88023952,,,,,286.0662,288.0656,n,0,288.0656,288.0657,,0,,,288.0658,288.066,,288.066,288.066,,0,120,120,120,1,cvmt/test_items/t121.jpeg,o,0.7082,,,,,,,,,,,,,,,,,,,,,,,,,,,,,,,,,,,,,,,,,,,,,,,,,,,,,,,,,,,,,,,,,,,,,,,,,,,,,,,,,,,,,,,,,,,,,,,,,,,,,,
,,117478,031,1,2024-03-05_22h24.32.830,Memory and Syntax,2023.2.3,Win32,59.88023952,,,,,288.0661,290.0657,o,1,290.0657,290.0658,,0,,,290.0658,290.066,,290.066,290.0661,,0,121,121,121,1,cvmt/test_items/t122.jpeg,o,0.8007,,,,,,,,,,,,,,,,,,,,,,,,,,,,,,,,,,,,,,,,,,,,,,,,,,,,,,,,,,,,,,,,,,,,,,,,,,,,,,,,,,,,,,,,,,,,,,,,,,,,,,
,,117478,031,1,2024-03-05_22h24.32.830,Memory and Syntax,2023.2.3,Win32,59.88023952,,,,,290.0661,292.0657,o,0,292.0657,292.0658,,0,,,292.0658,292.066,,292.066,292.066,,0,122,122,122,1,cvmt/test_items/t123.jpeg,n,0.9084,,,,,,,,,,,,,,,,,,,,,,,,,,,,,,,,,,,,,,,,,,,,,,,,,,,,,,,,,,,,,,,,,,,,,,,,,,,,,,,,,,,,,,,,,,,,,,,,,,,,,,
,,117478,031,1,2024-03-05_22h24.32.830,Memory and Syntax,2023.2.3,Win32,59.88023952,,,,,292.0661,294.0657,n,0,294.0657,294.0658,,0,,,294.0658,294.066,,294.066,294.0661,,0,123,123,123,1,cvmt/test_items/t124.jpeg,o,0.7492,,,,,,,,,,,,,,,,,,,,,,,,,,,,,,,,,,,,,,,,,,,,,,,,,,,,,,,,,,,,,,,,,,,,,,,,,,,,,,,,,,,,,,,,,,,,,,,,,,,,,,
,,117478,031,1,2024-03-05_22h24.32.830,Memory and Syntax,2023.2.3,Win32,59.88023952,,,,,294.0661,296.0656,o,1,296.0656,296.0658,,0,,,296.0658,296.066,,296.066,296.066,,0,124,124,124,1,cvmt/test_items/t125.jpeg,o,0.5878,,,,,,,,,,,,,,,,,,,,,,,,,,,,,,,,,,,,,,,,,,,,,,,,,,,,,,,,,,,,,,,,,,,,,,,,,,,,,,,,,,,,,,,,,,,,,,,,,,,,,,
,,117478,031,1,2024-03-05_22h24.32.830,Memory and Syntax,2023.2.3,Win32,59.88023952,,,,,296.0662,298.0657,n,0,298.0657,298.066,,0,,,298.066,298.0663,,298.0663,298.0663,,0,125,125,125,1,cvmt/test_items/t126.jpeg,o,1.4686,,,,,,,,,,,,,,,,,,,,,,,,,,,,,,,,,,,,,,,,,,,,,,,,,,,,,,,,,,,,,,,,,,,,,,,,,,,,,,,,,,,,,,,,,,,,,,,,,,,,,,
,,117478,031,1,2024-03-05_22h24.32.830,Memory and Syntax,2023.2.3,Win32,59.88023952,,,,,298.0663,300.0657,o,1,300.0657,300.0657,,0,,,300.0658,300.0659,,300.0659,300.066,,0,126,126,126,1,cvmt/test_items/t127.jpeg,o,0.7621,,,,,,,,,,,,,,,,,,,,,,,,,,,,,,,,,,,,,,,,,,,,,,,,,,,,,,,,,,,,,,,,,,,,,,,,,,,,,,,,,,,,,,,,,,,,,,,,,,,,,,
,,117478,031,1,2024-03-05_22h24.32.830,Memory and Syntax,2023.2.3,Win32,59.88023952,,,,,300.0661,302.0657,o,1,302.0657,302.0658,,0,,,302.0658,302.066,,302.066,302.066,,0,127,127,127,1,cvmt/test_items/t128.jpeg,o,0.7578,,,,,,,,,,,,,,,,,,,,,,,,,,,,,,,,,,,,,,,,,,,,,,,,,,,,,,,,,,,,,,,,,,,,,,,,,,,,,,,,,,,,,,,,,,,,,,,,,,,,,,
,,117478,031,1,2024-03-05_22h24.32.830,Memory and Syntax,2023.2.3,Win32,59.88023952,,,,,302.0661,304.0657,o,1,304.0657,304.066,,0,,,304.066,304.0662,,304.0662,304.0662,,0,128,128,128,1,cvmt/test_items/t129.jpeg,o,0.7052,,,,,,,,,,,,,,,,,,,,,,,,,,,,,,,,,,,,,,,,,,,,,,,,,,,,,,,,,,,,,,,,,,,,,,,,,,,,,,,,,,,,,,,,,,,,,,,,,,,,,,
,,117478,031,1,2024-03-05_22h24.32.830,Memory and Syntax,2023.2.3,Win32,59.88023952,,,,,304.0663,306.0657,o,1,306.0657,306.0658,,0,,,306.0658,306.066,,306.066,306.066,,0,129,129,129,1,cvmt/test_items/t130.jpeg,o,0.6075,,,,,,,,,,,,,,,,,,,,,,,,,,,,,,,,,,,,,,,,,,,,,,,,,,,,,,,,,,,,,,,,,,,,,,,,,,,,,,,,,,,,,,,,,,,,,,,,,,,,,,
,,117478,031,1,2024-03-05_22h24.32.830,Memory and Syntax,2023.2.3,Win32,59.88023952,,,,,306.0661,308.0659,o,0,308.0659,308.066,,0,,,308.066,308.0663,,308.0663,308.0664,,0,130,130,130,1,cvmt/test_items/t131.jpeg,n,0.8096,,,,,,,,,,,,,,,,,,,,,,,,,,,,,,,,,,,,,,,,,,,,,,,,,,,,,,,,,,,,,,,,,,,,,,,,,,,,,,,,,,,,,,,,,,,,,,,,,,,,,,
,,117478,031,1,2024-03-05_22h24.32.830,Memory and Syntax,2023.2.3,Win32,59.88023952,,,,,308.0664,310.0658,o,1,310.0658,310.0659,,0,,,310.0659,310.066,,310.066,310.066,,0,131,131,131,1,cvmt/test_items/t132.jpeg,o,0.6188,,,,,,,,,,,,,,,,,,,,,,,,,,,,,,,,,,,,,,,,,,,,,,,,,,,,,,,,,,,,,,,,,,,,,,,,,,,,,,,,,,,,,,,,,,,,,,,,,,,,,,
,,117478,031,1,2024-03-05_22h24.32.830,Memory and Syntax,2023.2.3,Win32,59.88023952,,,,,310.0662,312.0657,o,1,312.0657,312.0658,,0,,,312.0658,312.066,,312.0661,312.0661,,0,132,132,132,1,cvmt/test_items/t133.jpeg,o,0.7231,,,,,,,,,,,,,,,,,,,,,,,,,,,,,,,,,,,,,,,,,,,,,,,,,,,,,,,,,,,,,,,,,,,,,,,,,,,,,,,,,,,,,,,,,,,,,,,,,,,,,,
,,117478,031,1,2024-03-05_22h24.32.830,Memory and Syntax,2023.2.3,Win32,59.88023952,,,,,312.0661,314.0657,n,0,314.0657,314.0658,,0,,,314.0658,314.066,,314.066,314.0662,,0,133,133,133,1,cvmt/test_items/t134.jpeg,o,0.6999,,,,,,,,,,,,,,,,,,,,,,,,,,,,,,,,,,,,,,,,,,,,,,,,,,,,,,,,,,,,,,,,,,,,,,,,,,,,,,,,,,,,,,,,,,,,,,,,,,,,,,
,,117478,031,1,2024-03-05_22h24.32.830,Memory and Syntax,2023.2.3,Win32,59.88023952,,,,,314.0663,316.0658,o,1,316.0658,316.0658,,0,,,316.0658,316.0661,,316.0661,316.0661,,0,134,134,134,1,cvmt/test_items/t135.jpeg,o,0.6201,,,,,,,,,,,,,,,,,,,,,,,,,,,,,,,,,,,,,,,,,,,,,,,,,,,,,,,,,,,,,,,,,,,,,,,,,,,,,,,,,,,,,,,,,,,,,,,,,,,,,,
,,117478,031,1,2024-03-05_22h24.32.830,Memory and Syntax,2023.2.3,Win32,59.88023952,,,,,,,,,,,,,,,,,,,,,,,,,,,,,,,,,,316.0662,316.0663,1E-04,316.0698,319.5661,space,3.4649,,319.5703,329.8659,1.2,10.2846,0,0,0,0,1,1,1,WOV,8B,Practiced the virtuoso many pieces.,,,,,,,,,,,,,,,,,,,,,,,,,,,,,,,,,,,,,,,,,,,,,,,,,,,,,,,,,,,,,,,,,,,,,,,,,,,
,,117478,031,1,2024-03-05_22h24.32.830,Memory and Syntax,2023.2.3,Win32,59.88023952,,,,,,,,,,,,,,,,,,,,,,,,,,,,,,,,,,,,,,,,,,329.8662,332.6656,6.4,2.796,0,1,1,1,1,1,2,AS,6A,The rickety old boat sank.,,,,,,,,,,,,,,,,,,,,,,,,,,,,,,,,,,,,,,,,,,,,,,,,,,,,,,,,,,,,,,,,,,,,,,,,,,,
,,117478,031,1,2024-03-05_22h24.32.830,Memory and Syntax,2023.2.3,Win32,59.88023952,,,,,,,,,,,,,,,,,,,,,,,,,,,,,,,,,,,,,,,,,,332.6658,334.949,6,2.275,0,2,2,2,1,1,3,WO,6A,The waiter set the table promptly.,,,,,,,,,,,,,,,,,,,,,,,,,,,,,,,,,,,,,,,,,,,,,,,,,,,,,,,,,,,,,,,,,,,,,,,,,,,
,,117478,031,1,2024-03-05_22h24.32.830,Memory and Syntax,2023.2.3,Win32,59.88023952,,,,,,,,,,,,,,,,,,,,,,,,,,,,,,,,,,,,,,,,,,334.9491,337.3989,1.2,2.4385,0,3,3,3,1,1,4,control,12B,They anticipate that everybody you do will contact Megan.,,,,,,,,,,,,,,,,,,,,,,,,,,,,,,,,,,,,,,,,,,,,,,,,,,,,,,,,,,,,,,,,,,,,,,,,,,,
,,117478,031,1,2024-03-05_22h24.32.830,Memory and Syntax,2023.2.3,Win32,59.88023952,,,,,,,,,,,,,,,,,,,,,,,,,,,,,,,,,,,,,,,,,,337.3991,339.749,6.4,2.3385,0,4,4,4,1,1,5,ASV,11B,The cat moved himself away.,,,,,,,,,,,,,,,,,,,,,,,,,,,,,,,,,,,,,,,,,,,,,,,,,,,,,,,,,,,,,,,,,,,,,,,,,,,
,,117478,031,1,2024-03-05_22h24.32.830,Memory and Syntax,2023.2.3,Win32,59.88023952,,,,,,,,,,,,,,,,,,,,,,,,,,,,,,,,,,,,,,,,,,339.7492,341.9158,1.5,2.1557,0,5,5,5,1,1,6,ASV,7B,She laughed herself at the dog.,,,,,,,,,,,,,,,,,,,,,,,,,,,,,,,,,,,,,,,,,,,,,,,,,,,,,,,,,,,,,,,,,,,,,,,,,,,
,,117478,031,1,2024-03-05_22h24.32.830,Memory and Syntax,2023.2.3,Win32,59.88023952,,,,,,,,,,,,,,,,,,,,,,,,,,,,,,,,,,,,,,,,,,341.916,344.1324,6,2.2121,0,6,6,6,1,1,7,AS,5A,The professor cried about the article.,,,,,,,,,,,,,,,,,,,,,,,,,,,,,,,,,,,,,,,,,,,,,,,,,,,,,,,,,,,,,,,,,,,,,,,,,,,
,,117478,031,1,2024-03-05_22h24.32.830,Memory and Syntax,2023.2.3,Win32,59.88023952,,,,,,,,,,,,,,,,,,,,,,,,,,,,,,,,,,,,,,,,,,344.1325,346.6157,6,2.4817,0,7,7,7,1,1,8,WO,5A,My sibling expected a good grade.,,,,,,,,,,,,,,,,,,,,,,,,,,,,,,,,,,,,,,,,,,,,,,,,,,,,,,,,,,,,,,,,,,,,,,,,,,,
,,117478,031,1,2024-03-05_22h24.32.830,Memory and Syntax,2023.2.3,Win32,59.88023952,,,,,,,,,,,,,,,,,,,,,,,,,,,,,,,,,,,,,,,,,,346.6158,348.9323,2.3,2.3113,0,8,8,8,1,1,9,filler,1A,There has been a man considered violent.,,,,,,,,,,,,,,,,,,,,,,,,,,,,,,,,,,,,,,,,,,,,,,,,,,,,,,,,,,,,,,,,,,,,,,,,,,,
,,117478,031,1,2024-03-05_22h24.32.830,Memory and Syntax,2023.2.3,Win32,59.88023952,,,,,,,,,,,,,,,,,,,,,,,,,,,,,,,,,,,,,,,,,,348.9325,351.1492,6.6,2.216,0,9,9,9,1,1,10,AS,2A,Taylor subscribed to the channel.,,,,,,,,,,,,,,,,,,,,,,,,,,,,,,,,,,,,,,,,,,,,,,,,,,,,,,,,,,,,,,,,,,,,,,,,,,,
,,117478,031,1,2024-03-05_22h24.32.830,Memory and Syntax,2023.2.3,Win32,59.88023952,,,,,,,,,,,,,,,,,,,,,,,,,,,,,,,,,,,,,,,,,,351.1494,353.2991,1.8,2.139,0,10,10,10,1,1,11,control,10B,There might fossils seem to be several miles underground.,,,,,,,,,,,,,,,,,,,,,,,,,,,,,,,,,,,,,,,,,,,,,,,,,,,,,,,,,,,,,,,,,,,,,,,,,,,
,,117478,031,1,2024-03-05_22h24.32.830,Memory and Syntax,2023.2.3,Win32,59.88023952,,,,,,,,,,,,,,,,,,,,,,,,,,,,,,,,,,,,,,,,,,353.2993,355.5491,1.3,2.2402,0,11,11,11,1,1,12,ASV,8B,Esperanza sighed herself at the desk.,,,,,,,,,,,,,,,,,,,,,,,,,,,,,,,,,,,,,,,,,,,,,,,,,,,,,,,,,,,,,,,,,,,,,,,,,,,
,,117478,031,1,2024-03-05_22h24.32.830,Memory and Syntax,2023.2.3,Win32,59.88023952,,,,,,,,,,,,,,,,,,,,,,,,,,,,,,,,,,,,,,,,,,355.5492,357.9324,1.6,2.3744,0,12,12,12,1,1,13,WOV,9B,Read we five pages each night.,,,,,,,,,,,,,,,,,,,,,,,,,,,,,,,,,,,,,,,,,,,,,,,,,,,,,,,,,,,,,,,,,,,,,,,,,,,
,,117478,031,1,2024-03-05_22h24.32.830,Memory and Syntax,2023.2.3,Win32,59.88023952,,,,,,,,,,,,,,,,,,,,,,,,,,,,,,,,,,,,,,,,,,357.9326,360.0657,1.5,2.129,0,13,13,13,1,1,14,WOV,7B,Frightened the eerie sound Seth.,,,,,,,,,,,,,,,,,,,,,,,,,,,,,,,,,,,,,,,,,,,,,,,,,,,,,,,,,,,,,,,,,,,,,,,,,,,
,,117478,031,1,2024-03-05_22h24.32.830,Memory and Syntax,2023.2.3,Win32,59.88023952,,,,,,,,,,,,,,,,,,,,,,,,,,,,,,,,,,,,,,,,,,360.0658,362.9325,6.1,2.8536,0,14,14,14,1,1,15,filler,2A,"Arty is sick, and Mark is too.",,,,,,,,,,,,,,,,,,,,,,,,,,,,,,,,,,,,,,,,,,,,,,,,,,,,,,,,,,,,,,,,,,,,,,,,,,,
,,117478,031,1,2024-03-05_22h24.32.830,Memory and Syntax,2023.2.3,Win32,59.88023952,,,,,,,,,,,,,,,,,,,,,,,,,,,,,,,,,,,,,,,,,,362.9327,365.0657,1.6,2.125,0,15,15,15,1,1,16,ASV,9B,The prime minister confessed herself to bribery.,,,,,,,,,,,,,,,,,,,,,,,,,,,,,,,,,,,,,,,,,,,,,,,,,,,,,,,,,,,,,,,,,,,,,,,,,,,
,,117478,031,1,2024-03-05_22h24.32.830,Memory and Syntax,2023.2.3,Win32,59.88023952,,,,,,,,,,,,,,,,,,,,,,,,,,,,,,,,,,,,,,,,,,365.0659,367.3491,1.7,2.2777,0,16,16,16,1,1,17,control,7B,Olivia told Gregory when to exonerate herself.,,,,,,,,,,,,,,,,,,,,,,,,,,,,,,,,,,,,,,,,,,,,,,,,,,,,,,,,,,,,,,,,,,,,,,,,,,,
,,117478,031,1,2024-03-05_22h24.32.830,Memory and Syntax,2023.2.3,Win32,59.88023952,,,,,,,,,,,,,,,,,,,,,,,,,,,,,,,,,,,,,,,,,,367.3492,369.8493,6.2,2.4869,0,17,17,17,1,1,18,control,11B,There are likely students to be in the library.,,,,,,,,,,,,,,,,,,,,,,,,,,,,,,,,,,,,,,,,,,,,,,,,,,,,,,,,,,,,,,,,,,,,,,,,,,,
,,117478,031,1,2024-03-05_22h24.32.830,Memory and Syntax,2023.2.3,Win32,59.88023952,,,,,,,,,,,,,,,,,,,,,,,,,,,,,,,,,,,,,,,,,,369.8495,372.2657,6.2,2.4103,0,18,18,18,1,1,19,filler,5A,I told Mandy who would win the election.,,,,,,,,,,,,,,,,,,,,,,,,,,,,,,,,,,,,,,,,,,,,,,,,,,,,,,,,,,,,,,,,,,,,,,,,,,,
,,117478,031,1,2024-03-05_22h24.32.830,Memory and Syntax,2023.2.3,Win32,59.88023952,,,,,,,,,,,,,,,,,,,,,,,,,,,,,,,,,,,,,,,,,,372.2658,374.599,1.5,2.3221,0,19,19,19,1,1,20,control,9B,We consider there three problems.,,,,,,,,,,,,,,,,,,,,,,,,,,,,,,,,,,,,,,,,,,,,,,,,,,,,,,,,,,,,,,,,,,,,,,,,,,,
,,117478,031,1,2024-03-05_22h24.32.830,Memory and Syntax,2023.2.3,Win32,59.88023952,,,,,,,,,,,,,,,,,,,,,,,,,,,,,,,,,,,,,,,,,,374.5992,376.8491,1.6,2.2449,0,20,20,20,1,1,21,control,8B,She called Victor and yelled at.,,,,,,,,,,,,,,,,,,,,,,,,,,,,,,,,,,,,,,,,,,,,,,,,,,,,,,,,,,,,,,,,,,,,,,,,,,,
,,117478,031,1,2024-03-05_22h24.32.830,Memory and Syntax,2023.2.3,Win32,59.88023952,,,,,,,,,,,,,,,,,,,,,,,,,,,,,,,,,,,,,,,,,,376.8493,379.0659,5.6,2.2118,0,21,21,21,1,1,22,WO,4A,The bully pushed every student.,,,,,,,,,,,,,,,,,,,,,,,,,,,,,,,,,,,,,,,,,,,,,,,,,,,,,,,,,,,,,,,,,,,,,,,,,,,
,,117478,031,1,2024-03-05_22h24.32.830,Memory and Syntax,2023.2.3,Win32,59.88023952,,,,,,,,,,,,,,,,,,,,,,,,,,,,,,,,,,,,,,,,,,379.0661,381.2157,6.7,2.143,0,22,22,22,1,1,23,WO,3A,Miguel baked delicious cupcakes.,,,,,,,,,,,,,,,,,,,,,,,,,,,,,,,,,,,,,,,,,,,,,,,,,,,,,,,,,,,,,,,,,,,,,,,,,,,
,,117478,031,1,2024-03-05_22h24.32.830,Memory and Syntax,2023.2.3,Win32,59.88023952,,,,,,,,,,,,,,,,,,,,,,,,,,,,,,,,,,,,,,,,,,381.2159,383.4159,6.6,2.1881,0,23,23,23,1,1,24,WO,1A,Abby answered the question.,,,,,,,,,,,,,,,,,,,,,,,,,,,,,,,,,,,,,,,,,,,,,,,,,,,,,,,,,,,,,,,,,,,,,,,,,,,
,,117478,031,1,2024-03-05_22h24.32.830,Memory and Syntax,2023.2.3,Win32,59.88023952,,,,,,,,,,,,,,,,,,,,,,,,,,,,,,,,,,,,,,,,,,383.416,385.7158,6.8,2.2943,0,24,24,24,1,1,25,filler,3A,Brittany attempted to touch the porcupine.,,,,,,,,,,,,,,,,,,,,,,,,,,,,,,,,,,,,,,,,,,,,,,,,,,,,,,,,,,,,,,,,,,,,,,,,,,,
,,117478,031,1,2024-03-05_22h24.32.830,Memory and Syntax,2023.2.3,Win32,59.88023952,,,,,,,,,,,,,,,,,,,,,,,,,,,,,,,,,,,,,,,,,,385.716,388.1659,5,2.4363,0,25,25,25,1,1,26,AS,3A,Gracie stayed by the window.,,,,,,,,,,,,,,,,,,,,,,,,,,,,,,,,,,,,,,,,,,,,,,,,,,,,,,,,,,,,,,,,,,,,,,,,,,,
,,117478,031,1,2024-03-05_22h24.32.830,Memory and Syntax,2023.2.3,Win32,59.88023952,,,,,,,,,,,,,,,,,,,,,,,,,,,,,,,,,,,,,,,,,,388.1661,390.5824,1.2,2.4072,0,26,26,26,1,1,27,WOV,11B,Wrote she her boyfriend a poem.,,,,,,,,,,,,,,,,,,,,,,,,,,,,,,,,,,,,,,,,,,,,,,,,,,,,,,,,,,,,,,,,,,,,,,,,,,,
,,117478,031,1,2024-03-05_22h24.32.830,Memory and Syntax,2023.2.3,Win32,59.88023952,,,,,,,,,,,,,,,,,,,,,,,,,,,,,,,,,,,,,,,,,,390.5826,392.9824,1.3,2.3877,0,27,27,27,1,1,28,WOV,12B,Watched Lily a movie.,,,,,,,,,,,,,,,,,,,,,,,,,,,,,,,,,,,,,,,,,,,,,,,,,,,,,,,,,,,,,,,,,,,,,,,,,,,
,,117478,031,1,2024-03-05_22h24.32.830,Memory and Syntax,2023.2.3,Win32,59.88023952,,,,,,,,,,,,,,,,,,,,,,,,,,,,,,,,,,,,,,,,,,392.9826,395.8992,6.1,2.9068,0,28,28,28,1,1,29,WO,2A,Jackie won the close race.,,,,,,,,,,,,,,,,,,,,,,,,,,,,,,,,,,,,,,,,,,,,,,,,,,,,,,,,,,,,,,,,,,,,,,,,,,,
,,117478,031,1,2024-03-05_22h24.32.830,Memory and Syntax,2023.2.3,Win32,59.88023952,,,,,,,,,,,,,,,,,,,,,,,,,,,,,,,,,,,,,,,,,,395.8993,400.6825,6,4.7722,0,29,29,29,1,1,30,AS,4A,Tomas drank from the water pitcher.,,,,,,,,,,,,,,,,,,,,,,,,,,,,,,,,,,,,,,,,,,,,,,,,,,,,,,,,,,,,,,,,,,,,,,,,,,,
,,117478,031,1,2024-03-05_22h24.32.830,Memory and Syntax,2023.2.3,Win32,59.88023952,,,,,,,,,,,,,,,,,,,,,,,,,,,,,,,,,,,,,,,,,,400.6826,403.1492,1.5,2.4554,0,30,30,30,1,1,31,WOV,10B,Kissed Kareem his boyfriend.,,,,,,,,,,,,,,,,,,,,,,,,,,,,,,,,,,,,,,,,,,,,,,,,,,,,,,,,,,,,,,,,,,,,,,,,,,,
,,117478,031,1,2024-03-05_22h24.32.830,Memory and Syntax,2023.2.3,Win32,59.88023952,,,,,,,,,,,,,,,,,,,,,,,,,,,,,,,,,,,,,,,,,,403.1494,406.5324,6.1,3.3733,0,31,31,31,1,1,32,ASV,10B,The children quieted themselves.,,,,,,,,,,,,,,,,,,,,,,,,,,,,,,,,,,,,,,,,,,,,,,,,,,,,,,,,,,,,,,,,,,,,,,,,,,,
,,117478,031,1,2024-03-05_22h24.32.830,Memory and Syntax,2023.2.3,Win32,59.88023952,,,,,,,,,,,,,,,,,,,,,,,,,,,,,,,,,,,,,,,,,,406.5325,408.9992,6.9,2.453,0,32,32,32,1,1,33,AS,1A,They fidgeted in their chairs.,,,,,,,,,,,,,,,,,,,,,,,,,,,,,,,,,,,,,,,,,,,,,,,,,,,,,,,,,,,,,,,,,,,,,,,,,,,
,,117478,031,1,2024-03-05_22h24.32.830,Memory and Syntax,2023.2.3,Win32,59.88023952,,,,,,,,,,,,,,,,,,,,,,,,,,,,,,,,,,,,,,,,,,408.9994,411.8492,6.8,2.8405,0,33,33,33,1,1,34,filler,4A,It seems to him that Kim solved the problem.,,,,,,,,,,,,,,,,,,,,,,,,,,,,,,,,,,,,,,,,,,,,,,,,,,,,,,,,,,,,,,,,,,,,,,,,,,,
,,117478,031,1,2024-03-05_22h24.32.830,Memory and Syntax,2023.2.3,Win32,59.88023952,,,,,,,,,,,,,,,,,,,,,,,,,,,,,,,,,,,,,,,,,,411.8492,414.1659,6.5,2.3086,0,34,34,34,1,1,35,ASV,12B,The swimmers shaved themselves.,,,,,,,,,,,,,,,,,,,,,,,,,,,,,,,,,,,,,,,,,,,,,,,,,,,,,,,,,,,,,,,,,,,,,,,,,,,
,,117478,031,1,2024-03-05_22h24.32.830,Memory and Syntax,2023.2.3,Win32,59.88023952,,,,,,,,,,,,,,,,,,,,,,,,,,,,,,,,,,,,,,,,,,,,,,,,,,,,,,,,414.1713,431.3999,431.4053,435.3992,435.4084,446.8839,0,0,0,0,1,lu pleck,brocanto/stims/img/mechanic.png,brocanto/stims/audio/lu_pleck_2.,x.1,,,,,,,,,,,,,,,,,,,,,,,,,,,,,,,,,,,,,,,,,,,,,,,,,,,,,,,,,,,,
,,117478,031,1,2024-03-05_22h24.32.830,Memory and Syntax,2023.2.3,Win32,59.88023952,,,,,,,,,,,,,,,,,,,,,,,,,,,,,,,,,,,,,,,,,,,,,,,,,,,,,,,,,,,,446.8891,450.0329,0,1,1,1,1,lu neep,brocanto/stims/img/doctor.png,brocanto/stims/audio/lu_neep_1.,x.1,,,,,,,,,,,,,,,,,,,,,,,,,,,,,,,,,,,,,,,,,,,,,,,,,,,,,,,,,,,,
,,117478,031,1,2024-03-05_22h24.32.830,Memory and Syntax,2023.2.3,Win32,59.88023952,,,,,,,,,,,,,,,,,,,,,,,,,,,,,,,,,,,,,,,,,,,,,,,,,,,,,,,,,,,,450.0332,452.5163,0,2,2,2,1,lu vode,brocanto/stims/img/chef.png,brocanto/stims/audio/lu_vode_2.,x.1,,,,,,,,,,,,,,,,,,,,,,,,,,,,,,,,,,,,,,,,,,,,,,,,,,,,,,,,,,,,
,,117478,031,1,2024-03-05_22h24.32.830,Memory and Syntax,2023.2.3,Win32,59.88023952,,,,,,,,,,,,,,,,,,,,,,,,,,,,,,,,,,,,,,,,,,,,,,,,,,,,,,,,,,,,452.5166,454.3159,0,3,3,3,1,lu blom,brocanto/stims/img/firefighter.png,brocanto/stims/audio/lu_blom_2.,x.1,,,,,,,,,,,,,,,,,,,,,,,,,,,,,,,,,,,,,,,,,,,,,,,,,,,,,,,,,,,,
,,117478,031,1,2024-03-05_22h24.32.830,Memory and Syntax,2023.2.3,Win32,59.88023952,,,,,,,,,,,,,,,,,,,,,,,,,,,,,,,,,,,,,,,,,,,,,,,,,,,,,,,,,,,,454.316,456.4493,0,4,4,4,1,lu neimo,brocanto/stims/img/pilot.png,brocanto/stims/audio/lu_neimo_2.,x.1,,,,,,,,,,,,,,,,,,,,,,,,,,,,,,,,,,,,,,,,,,,,,,,,,,,,,,,,,,,,
,,117478,031,1,2024-03-05_22h24.32.830,Memory and Syntax,2023.2.3,Win32,59.88023952,,,,,,,,,,,,,,,,,,,,,,,,,,,,,,,,,,,,,,,,,,,,,,,,,,,,,,,,,,,,456.4495,458.4158,0,5,5,5,1,lu troise,brocanto/stims/img/janitor.png,brocanto/stims/audio/lu_troise_2.,x.1,,,,,,,,,,,,,,,,,,,,,,,,,,,,,,,,,,,,,,,,,,,,,,,,,,,,,,,,,,,,
,,117478,031,1,2024-03-05_22h24.32.830,Memory and Syntax,2023.2.3,Win32,59.88023952,,,,,,,,,,,,,,,,,,,,,,,,,,,,,,,,,,,,,,,,,,,,,,,,,,,,,,,,,,,,,,,,,,,,,,,458.4171,463.2882,t,4.8526,,0,0,0,0,1,,,,,,,,,,,,,,,,,,,,,,,,,,,,,,,,,,,,,,,,,,,,,,,,,,
,,117478,031,1,2024-03-05_22h24.32.830,Memory and Syntax,2023.2.3,Win32,59.88023952,,,,,,,,,,,,,,,,,,,,,,,,,,,,,,,,,,,,,,,,,,,,,,,,,,,,,,,,,,,,,,,,,,,,,,,,,,,,,,,,,463.2884,473.9003,473.9072,488.8494,"[""p"",""l"",""u"",""t"",""N/A"",""N/A"",""o"",""return""]","[12.512799999997014,12.515599999994038,12.715899999991052,12.821799999996983,13.151699999988068,13.323799999996993,14.065599999994049,14.424099999994041]","[null,null,null,null,null,null,null,null]",488.8504,489.8494,0,0,0,0,1,,,,,,,,,,,,,,,,,,,,,,,,,,,,,,,,,,,,
,,117478,031,1,2024-03-05_22h24.32.830,Memory and Syntax,2023.2.3,Win32,59.88023952,,,,,,,,,,,,,,,,,,,,,,,,,,,,,,,,,,,,,,,,,,,,,,,,,,,,,,,,,,,,,,,,,,,lu pleck,brocanto/stims/img/mechanic.png,brocanto/stims/audio/lu_pleck_2.,x.1,,,,,,,,,,,,,,,,,,,,,,,,,0,0,0,0,1,,,,,,,,,,,,,,,,,,,,,,,,,,,,,,,
,,117478,031,1,2024-03-05_22h24.32.830,Memory and Syntax,2023.2.3,Win32,59.88023952,,,,,,,,,,,,,,,,,,,,,,,,,,,,,,,,,,,,,,,,,,,,,,,,,,,,,,,,,,,,,,,,,,,,,,,,,,,,,,,,,,,489.8498,493.3827,"[""n"",""e"",""e"",""t"",""o"",""return""]","[1.9814000000059764,2.414400000005969,2.5534000000059223,2.741599999994037,2.8057999999970207,3.005299999997021]","[null,null,null,null,null,null]",493.3881,494.3826,0,0,0,0,1,,,,,,,,,,,,,,,,,,,,,,,,,,,,,,,,,,,,
,,117478,031,1,2024-03-05_22h24.32.830,Memory and Syntax,2023.2.3,Win32,59.88023952,,,,,,,,,,,,,,,,,,,,,,,,,,,,,,,,,,,,,,,,,,,,,,,,,,,,,,,,,,,,,,,,,,,lu neep,brocanto/stims/img/doctor.png,brocanto/stims/audio/lu_neep_1.,x.1,,,,,,,,,,,,,,,,,,,,,,,,,0,1,1,1,1,,,,,,,,,,,,,,,,,,,,,,,,,,,,,,,
,,117478,031,1,2024-03-05_22h24.32.830,Memory and Syntax,2023.2.3,Win32,59.88023952,,,,,,,,,,,,,,,,,,,,,,,,,,,,,,,,,,,,,,,,,,,,,,,,,,,,,,,,,,,,,,,,,,,lu vode,brocanto/stims/img/chef.png,brocanto/stims/audio/lu_vode_2.,x.1,,,,,,,,,,,,,494.3829,501.2828,"[""p"",""e"",""o"",""return""]","[4.431099999994046,4.5190000000000055,4.604900000005955,6.365200000002972]","[null,null,null,null]",510.2827,511.2826,,,,,,0,2,2,2,1,,,,,,,,,,,,,,,,,,,,,,,,,,,,,,,
,,117478,031,1,2024-03-05_22h24.32.830,Memory and Syntax,2023.2.3,Win32,59.88023952,,,,,,,,,,,,,,,,,,,,,,,,,,,,,,,,,,,,,,,,,,,,,,,,,,,,,,,,,,,,,,,,,,,,,,,,,,,,,,,,,,,511.2829,554.7828,"[""l"",""u"",""space"",""n"",""e"",""e"",""o"",""return""]","[2.283200000003035,2.5235000000000127,2.637200000002963,42.215299999997,42.29889999999102,42.432299999996985,42.56520000000296,42.96639999999104]","[null,null,null,null,null,null,null,null]",554.7885,555.7828,0,0,0,0,1,,,,,,,,,,,,,,,,,,,,,,,,,,,,,,,,,,,,
,,117478,031,1,2024-03-05_22h24.32.830,Memory and Syntax,2023.2.3,Win32,59.88023952,,,,,,,,,,,,,,,,,,,,,,,,,,,,,,,,,,,,,,,,,,,,,,,,,,,,,,,,,,,,,,,,,,,lu blom,brocanto/stims/img/firefighter.png,brocanto/stims/audio/lu_blom_2.,x.1,,,,,,,,,,,,,,,,,,,,,,,,,0,3,3,3,1,,,,,,,,,,,,,,,,,,,,,,,,,,,,,,,
,,117478,031,1,2024-03-05_22h24.32.830,Memory and Syntax,2023.2.3,Win32,59.88023952,,,,,,,,,,,,,,,,,,,,,,,,,,,,,,,,,,,,,,,,,,,,,,,,,,,,,,,,,,,,,,,,,,,,,,,,,,,,,,,,,,,555.783,560.016,"[""l"",""u"",""space"",""n"",""e"",""e"",""m"",""o"",""return""]","[1.9657000000030393,2.1553999999911184,2.245200000003024,2.4233999999911475,2.5732999999970616,2.7113999999911584,3.177500000000009,3.293399999991152,3.7113999999911584]","[null,null,null,null,null,null,null,null,null]",560.0213,561.0161,0,0,0,0,1,,,,,,,,,,,,,,,,,,,,,,,,,,,,,,,,,,,,
,,117478,031,1,2024-03-05_22h24.32.830,Memory and Syntax,2023.2.3,Win32,59.88023952,,,,,,,,,,,,,,,,,,,,,,,,,,,,,,,,,,,,,,,,,,,,,,,,,,,,,,,,,,,,,,,,,,,lu neimo,brocanto/stims/img/pilot.png,brocanto/stims/audio/lu_neimo_2.,x.1,,,,,,,,,,,,,,,,,,,,,,,,,0,4,4,4,1,,,,,,,,,,,,,,,,,,,,,,,,,,,,,,,
,,117478,031,1,2024-03-05_22h24.32.830,Memory and Syntax,2023.2.3,Win32,59.88023952,,,,,,,,,,,,,,,,,,,,,,,,,,,,,,,,,,,,,,,,,,,,,,,,,,,,,,,,,,,,,,,,,,,,,,,,,,,,,,,,,,,561.0163,565.2162,"[""l"",""u"",""space"",""p"",""r"",""i"",""s"",""o"",""return""]","[1.7129999999999654,1.929599999994025,2.024899999991021,2.7552999999969643,2.9189999999999827,2.957099999993943,3.0849999999999227,3.365399999991041,3.6669999999999163]","[null,null,null,null,null,null,null,null,null]",565.2215,566.2161,0,0,0,0,1,,,,,,,,,,,,,,,,,,,,,,,,,,,,,,,,,,,,
,,117478,031,1,2024-03-05_22h24.32.830,Memory and Syntax,2023.2.3,Win32,59.88023952,,,,,,,,,,,,,,,,,,,,,,,,,,,,,,,,,,,,,,,,,,,,,,,,,,,,,,,,,,,,,,,,,,,lu troise,brocanto/stims/img/janitor.png,brocanto/stims/audio/lu_troise_2.,x.1,,,,,,,,,,,,,,,,,,,,,,,,,0,5,5,5,1,,,,,,,,,,,,,,,,,,,,,,,,,,,,,,,
,,117478,031,1,2024-03-05_22h24.32.830,Memory and Syntax,2023.2.3,Win32,59.88023952,,,,,,,,,,,,,,,,,,,,,,,,,,,,,,,,,,,,,,,,,,,,,,,,,,,,,,,,,,,,,,,,,,,,,,,,,,,,,,,,,,,566.2165,572.2496,"[""l"",""u"",""space"",""p"",""e"",""u"",""n"",""o"",""return""]","[2.149399999991033,2.348799999997027,2.4209999999999354,4.565299999997023,4.819399999990992,4.871399999991013,4.955499999999915,5.171399999991081,5.501399999991008]","[null,null,null,null,null,null,null,null,null]",572.255,573.2493,0,0,0,0,1,,,,,,,,,,,,,,,,,,,,,,,,,,,,,,,,,,,,
,,117478,031,1,2024-03-05_22h24.32.830,Memory and Syntax,2023.2.3,Win32,59.88023952,,,,,,,,,,,,,,,,,,,,,,,,,,,,,,,,,,,,,,,,,,,,,,,,,,,,,,,,,,,,,,,,,,,lu pleck,brocanto/stims/img/mechanic.png,brocanto/stims/audio/lu_pleck_2.,x.1,,,,,,,,,,,,,,,,,,,,,,,,,0,6,6,6,1,,,,,,,,,,,,,,,,,,,,,,,,,,,,,,,
,,117478,031,1,2024-03-05_22h24.32.830,Memory and Syntax,2023.2.3,Win32,59.88023952,,,,,,,,,,,,,,,,,,,,,,,,,,,,,,,,,,,,,,,,,,,,,,,,,,,,,,,,,,,,,,,,,,,lu neep,brocanto/stims/img/doctor.png,brocanto/stims/audio/lu_neep_1.,x.1,,,,,,,,,,,,,573.2496,,,,,,,,,,,,0,7,7,7,1,0,0,0,0,1,1,1,1,1,1,0,0,0,0,1,1,0,0,0,0,0,1,0,,0,0,0,0,1,998,11