load.started,load.stopped,Sona ID,Participant ID,Session,date,expName,psychopyVersion,OS,frameRate,cvmtInstr.started,cvmtInstr.stopped,cvmtTaskInstr.started,cvmtTaskInstr.stopped,presentDesign.started,presentDesign.stopped,cvmt_key_resp.keys,cvmt_key_resp.corr,cvmt_key_resp.rt,cvmt_key_resp.duration,cvmtNoResp.started,cvmtNoResp.stopped,cvmt_key_resp2.keys,cvmt_key_resp2.corr,cvmtSampleFB.started,cvmtSampleFB.stopped,key_resp_15.keys,cvmtSampleFBFinal.started,cvmtSampleFBFinal.stopped,cvmt_final_samp_fb_key_resp.keys,cvmtTrials.thisRepN,cvmtTrials.thisTrialN,cvmtTrials.thisN,cvmtTrials.thisIndex,cvmtTrials.ran,cvmt_design,old_or_new,key_resp_15.rt,key_resp_15.duration,cvmt_final_samp_fb_key_resp.rt,cvmt_final_samp_fb_key_resp.duration,cvmt_key_resp2.rt,cvmt_key_resp2.duration,cvmtDelay.started,cvmtDelay.stopped,cvmt timer,engAJT_instr.started,engAJT_instr.stopped,start_ajt.keys,start_ajt.rt,start_ajt.duration,engAJT.started,engAJT.stopped,acceptability.response,acceptability.rt,engAJT_trials.thisRepN,engAJT_trials.thisTrialN,engAJT_trials.thisN,engAJT_trials.thisIndex,engAJT_trials.ran,ajt_list,list_position,condition,item,testSent
0.001,0.2026,117478,031,1,2024-03-05_22h12.22.997,Memory and Syntax,2023.2.3,Win32,58.47953216,,,,,,,,,,,,,,,,,,,,,,,,,,,,,,,,,,,,,,,,,,,,,,,,,,,,,,,
,,117478,031,1,2024-03-05_22h12.22.997,Memory and Syntax,2023.2.3,Win32,58.47953216,0.2134,34.0606,34.0641,43.4435,43.48,45.4596,n,1,1.5134,,45.4599,45.4617,,0,45.462,45.4629,,45.4632,45.4638,,0,0,0,0,1,cvmt/sample/s1.jpg,n,,,,,,,,,,,,,,,,,,,,,,,,,,,,
,,117478,031,1,2024-03-05_22h12.22.997,Memory and Syntax,2023.2.3,Win32,58.47953216,,,,,45.4646,47.4595,o,0,1.2111,,47.4598,47.4604,,0,47.4607,55.66,c,55.6603,55.6609,,0,1,1,1,1,cvmt/sample/s2.jpg,n,8.1831,,,,,,,,,,,,,,,,,,,,,,,,,,,
,,117478,031,1,2024-03-05_22h12.22.997,Memory and Syntax,2023.2.3,Win32,58.47953216,,,,,55.6663,57.6595,n,0,1.3337,,57.6597,57.6611,,0,57.6612,69.0928,c,69.0931,69.0936,,0,2,2,2,1,cvmt/sample/s3.jpg,o,11.4174,,,,,,,,,,,,,,,,,,,,,,,,,,,
,,117478,031,1,2024-03-05_22h12.22.997,Memory and Syntax,2023.2.3,Win32,58.47953216,,,,,69.0992,71.0928,n,1,1.2928,,71.0932,71.0947,,0,71.0948,71.0961,,71.0963,71.0966,,0,3,3,3,1,cvmt/sample/s4.jpg,n,,,,,,,,,,,,,,,,,,,,,,,,,,,,
,,117478,031,1,2024-03-05_22h12.22.997,Memory and Syntax,2023.2.3,Win32,58.47953216,,,,,71.0973,73.0928,n,1,1.3158,,73.0931,73.0937,,0,73.0939,73.0944,,73.0946,73.0951,,0,4,4,4,1,cvmt/sample/s5.jpg,n,,,,,,,,,,,,,,,,,,,,,,,,,,,,
,,117478,031,1,2024-03-05_22h12.22.997,Memory and Syntax,2023.2.3,Win32,58.47953216,,,,,73.0958,75.093,o,0,1.3609,,75.0933,75.094,,0,75.0943,78.2762,c,78.2764,78.277,,0,5,5,5,1,cvmt/sample/s6.jpg,n,3.1645,,,,,,,,,,,,,,,,,,,,,,,,,,,
,,117478,031,1,2024-03-05_22h12.22.997,Memory and Syntax,2023.2.3,Win32,58.47953216,,,,,78.2822,80.2762,n,0,1.2462,,80.2765,80.2779,,0,80.2781,86.8596,c,86.8599,86.8604,,0,6,6,6,1,cvmt/sample/s7.jpg,o,6.5637,0.0003,,,,,,,,,,,,,,,,,,,,,,,,,,
,,117478,031,1,2024-03-05_22h12.22.997,Memory and Syntax,2023.2.3,Win32,58.47953216,,,,,86.8657,88.8596,o,0,1.5397,,88.8599,88.8614,,0,88.8616,94.6763,c,94.6765,94.6771,,0,7,7,7,1,cvmt/sample/s8.jpg,n,5.7997,0.0035,,,,,,,,,,,,,,,,,,,,,,,,,,
,,117478,031,1,2024-03-05_22h12.22.997,Memory and Syntax,2023.2.3,Win32,58.47953216,,,,,94.6824,96.6762,n,1,1.0958,,96.6765,96.6778,,0,96.678,96.6793,,96.6794,96.6798,,0,8,8,8,1,cvmt/sample/s9.jpg,n,,,,,,,,,,,,,,,,,,,,,,,,,,,,
,,117478,031,1,2024-03-05_22h12.22.997,Memory and Syntax,2023.2.3,Win32,58.47953216,,,,,96.6806,98.6762,n,1,1.0262,,98.6764,98.6771,,0,98.6773,98.6779,,98.6781,98.6785,,0,9,9,9,1,cvmt/sample/s10.jpg,n,,,,,,,,,,,,,,,,,,,,,,,,,,,,
,,117478,031,1,2024-03-05_22h12.22.997,Memory and Syntax,2023.2.3,Win32,58.47953216,,,,,98.6793,100.6762,o,1,1.2481,,100.6765,100.6771,,0,100.6773,100.6779,,100.678,106.4929,r,0,10,10,10,1,cvmt/sample/s11.jpg,o,,,5.7942,0.0002,,,,,,,,,,,,,,,,,,,,,,,,
,,117478,031,1,2024-03-05_22h12.22.997,Memory and Syntax,2023.2.3,Win32,58.47953216,,,,,106.4984,108.4928,n,1,0.9645,,108.4931,108.4945,,0,108.4947,108.4952,,108.4955,108.4965,,1,0,11,0,1,cvmt/sample/s1.jpg,n,,,,,,,,,,,,,,,,,,,,,,,,,,,,
,,117478,031,1,2024-03-05_22h12.22.997,Memory and Syntax,2023.2.3,Win32,58.47953216,,,,,108.4972,110.4929,n,1,0.4959,,110.4931,110.4937,,0,110.494,110.4945,,110.4947,110.4951,,1,1,12,1,1,cvmt/sample/s2.jpg,n,,,,,,,,,,,,,,,,,,,,,,,,,,,,
,,117478,031,1,2024-03-05_22h12.22.997,Memory and Syntax,2023.2.3,Win32,58.47953216,,,,,110.4958,112.4928,o,1,1.1947,,112.4931,112.4935,,0,112.4937,112.4943,,112.4945,112.4948,,1,2,13,2,1,cvmt/sample/s3.jpg,o,,,,,,,,,,,,,,,,,,,,,,,,,,,,
,,117478,031,1,2024-03-05_22h12.22.997,Memory and Syntax,2023.2.3,Win32,58.47953216,,,,,112.4953,114.4929,n,1,0.8281,,114.4932,114.4937,,0,114.494,114.4947,,114.4949,114.4954,,1,3,14,3,1,cvmt/sample/s4.jpg,n,,,,,,,,,,,,,,,,,,,,,,,,,,,,
,,117478,031,1,2024-03-05_22h12.22.997,Memory and Syntax,2023.2.3,Win32,58.47953216,,,,,114.4964,116.4928,n,1,0.7539,,116.4931,116.4937,,0,116.4939,116.4945,,116.4947,116.4951,,1,4,15,4,1,cvmt/sample/s5.jpg,n,,,,,,,,,,,,,,,,,,,,,,,,,,,,
,,117478,031,1,2024-03-05_22h12.22.997,Memory and Syntax,2023.2.3,Win32,58.47953216,,,,,116.4958,118.4929,n,1,0.4477,,118.4931,118.4936,,0,118.4939,118.4945,,118.4946,118.495,,1,5,16,5,1,cvmt/sample/s6.jpg,n,,,,,,,,,,,,,,,,,,,,,,,,,,,,
,,117478,031,1,2024-03-05_22h12.22.997,Memory and Syntax,2023.2.3,Win32,58.47953216,,,,,118.4956,120.4929,o,1,0.9836,,120.4932,120.4939,,0,120.494,120.4947,,120.4948,120.4953,,1,6,17,6,1,cvmt/sample/s7.jpg,o,,,,,,,,,,,,,,,,,,,,,,,,,,,,
,,117478,031,1,2024-03-05_22h12.22.997,Memory and Syntax,2023.2.3,Win32,58.47953216,,,,,120.496,122.493,n,1,1.327,,122.4932,122.4938,,0,122.494,122.4946,,122.4948,122.4953,,1,7,18,7,1,cvmt/sample/s8.jpg,n,,,,,,,,,,,,,,,,,,,,,,,,,,,,
,,117478,031,1,2024-03-05_22h12.22.997,Memory and Syntax,2023.2.3,Win32,58.47953216,,,,,122.496,124.4929,n,1,0.9316,,124.4933,124.4939,,0,124.4942,124.4949,,124.4953,124.4958,,1,8,19,8,1,cvmt/sample/s9.jpg,n,,,,,,,,,,,,,,,,,,,,,,,,,,,,
,,117478,031,1,2024-03-05_22h12.22.997,Memory and Syntax,2023.2.3,Win32,58.47953216,,,,,124.4965,126.4929,n,1,0.86,,126.4932,126.494,,0,126.4943,126.4948,,126.495,126.4954,,1,9,20,9,1,cvmt/sample/s10.jpg,n,,,,,,,,,,,,,,,,,,,,,,,,,,,,
,,117478,031,1,2024-03-05_22h12.22.997,Memory and Syntax,2023.2.3,Win32,58.47953216,,,,,126.4961,128.4929,o,1,0.7526,,128.4931,128.4937,,0,128.494,128.4944,,128.4947,128.4955,,1,10,21,10,1,cvmt/sample/s11.jpg,o,,,,,,,,,,,,,,,,,,,,,,,,,,,,
,,117478,031,1,2024-03-05_22h12.22.997,Memory and Syntax,2023.2.3,Win32,58.47953216,,,128.4959,134.1594,134.1656,136.1594,n,1,1.2745,,136.1594,136.1605,,0,136.1605,136.1607,,136.1607,136.1608,,0,0,0,0,1,cvmt/test_items/t1.jpeg,n,,,,,,,,,,,,,,,,,,,,,,,,,,,,
,,117478,031,1,2024-03-05_22h12.22.997,Memory and Syntax,2023.2.3,Win32,58.47953216,,,,,136.1608,138.1598,n,1,0.7894,,138.1598,138.1601,,0,138.1601,138.1606,,138.1606,138.1606,,0,1,1,1,1,cvmt/test_items/t2.jpeg,n,,,,,,,,,,,,,,,,,,,,,,,,,,,,
,,117478,031,1,2024-03-05_22h12.22.997,Memory and Syntax,2023.2.3,Win32,58.47953216,,,,,138.1608,140.1593,n,0,0.6972,,140.1593,140.1595,,0,140.1595,140.1597,,140.1597,140.1597,,0,2,2,2,1,cvmt/test_items/t3.jpeg,o,,,,,,,,,,,,,,,,,,,,,,,,,,,,
,,117478,031,1,2024-03-05_22h12.22.997,Memory and Syntax,2023.2.3,Win32,58.47953216,,,,,140.1598,142.1593,n,0,0.5591,,142.1593,142.1595,,0,142.1595,142.1596,,142.1597,142.1597,,0,3,3,3,1,cvmt/test_items/t4.jpeg,o,,,,,,,,,,,,,,,,,,,,,,,,,,,,
,,117478,031,1,2024-03-05_22h12.22.997,Memory and Syntax,2023.2.3,Win32,58.47953216,,,,,142.1598,144.1593,n,0,0.5632,,144.1593,144.1594,,0,144.1594,144.1596,,144.1596,144.1596,,0,4,4,4,1,cvmt/test_items/t5.jpeg,o,,,,,,,,,,,,,,,,,,,,,,,,,,,,
,,117478,031,1,2024-03-05_22h12.22.997,Memory and Syntax,2023.2.3,Win32,58.47953216,,,,,144.1597,146.1592,n,0,0.5623,,146.1593,146.1594,,0,146.1595,146.1597,,146.1597,146.1598,,0,5,5,5,1,cvmt/test_items/t6.jpeg,o,,,,,,,,,,,,,,,,,,,,,,,,,,,,
,,117478,031,1,2024-03-05_22h12.22.997,Memory and Syntax,2023.2.3,Win32,58.47953216,,,,,146.1599,148.1592,n,0,0.5291,,148.1593,148.1594,,0,148.1594,148.1596,,148.1596,148.1596,,0,6,6,6,1,cvmt/test_items/t7.jpeg,o,,,,,,,,,,,,,,,,,,,,,,,,,,,,
,,117478,031,1,2024-03-05_22h12.22.997,Memory and Syntax,2023.2.3,Win32,58.47953216,,,,,148.1597,150.1593,o,1,0.6313,,150.1593,150.1595,,0,150.1595,150.1596,,150.1596,150.1597,,0,7,7,7,1,cvmt/test_items/t8.jpeg,o,,,,,,,,,,,,,,,,,,,,,,,,,,,,
,,117478,031,1,2024-03-05_22h12.22.997,Memory and Syntax,2023.2.3,Win32,58.47953216,,,,,150.1597,152.1592,n,0,0.6937,,152.1593,152.1594,,0,152.1594,152.1595,,152.1597,152.1597,,0,8,8,8,1,cvmt/test_items/t9.jpeg,o,,,,,,,,,,,,,,,,,,,,,,,,,,,,
,,117478,031,1,2024-03-05_22h12.22.997,Memory and Syntax,2023.2.3,Win32,58.47953216,,,,,152.1597,154.1593,n,0,0.6506,,154.1593,154.1594,,0,154.1594,154.1596,,154.1596,154.1597,,0,9,9,9,1,cvmt/test_items/t10.jpeg,o,,,,,,,,,,,,,,,,,,,,,,,,,,,,
,,117478,031,1,2024-03-05_22h12.22.997,Memory and Syntax,2023.2.3,Win32,58.47953216,,,,,154.1597,156.1594,n,1,0.6116,,156.1594,156.1595,,0,156.1595,156.1597,,156.1597,156.1597,,0,10,10,10,1,cvmt/test_items/t11.jpeg,n,,,,,,,,,,,,,,,,,,,,,,,,,,,,
,,117478,031,1,2024-03-05_22h12.22.997,Memory and Syntax,2023.2.3,Win32,58.47953216,,,,,156.1598,158.1593,n,0,0.5929,,158.1593,158.1594,,0,158.1594,158.1597,,158.1597,158.1597,,0,11,11,11,1,cvmt/test_items/t12.jpeg,o,,,,,,,,,,,,,,,,,,,,,,,,,,,,
,,117478,031,1,2024-03-05_22h12.22.997,Memory and Syntax,2023.2.3,Win32,58.47953216,,,,,158.1598,160.1593,o,1,1.237,,160.1593,160.1594,,0,160.1594,160.1597,,160.1597,160.1597,,0,12,12,12,1,cvmt/test_items/t13.jpeg,o,,,,,,,,,,,,,,,,,,,,,,,,,,,,
,,117478,031,1,2024-03-05_22h12.22.997,Memory and Syntax,2023.2.3,Win32,58.47953216,,,,,160.1598,162.1594,n,0,0.687,,162.1594,162.1595,,0,162.1595,162.1597,,162.1597,162.1597,,0,13,13,13,1,cvmt/test_items/t14.jpeg,o,,,,,,,,,,,,,,,,,,,,,,,,,,,,
,,117478,031,1,2024-03-05_22h12.22.997,Memory and Syntax,2023.2.3,Win32,58.47953216,,,,,162.1598,164.1593,,0,,,164.1594,168.9427,n,0,168.9427,168.9476,,168.9476,168.9477,,0,14,14,14,1,cvmt/test_items/t15.jpeg,o,,,,,4.765,,,,,,,,,,,,,,,,,,,,,,,
,,117478,031,1,2024-03-05_22h12.22.997,Memory and Syntax,2023.2.3,Win32,58.47953216,,,,,168.9478,170.9427,o,1,0.8507,,170.9428,170.9438,,0,170.9439,170.944,,170.944,170.9441,,0,15,15,15,1,cvmt/test_items/t16.jpeg,o,,,,,,,,,,,,,,,,,,,,,,,,,,,,
,,117478,031,1,2024-03-05_22h12.22.997,Memory and Syntax,2023.2.3,Win32,58.47953216,,,,,170.9442,172.9428,o,1,1.1005,,172.9428,172.9429,,0,172.9429,172.943,,172.943,172.9431,,0,16,16,16,1,cvmt/test_items/t17.jpeg,o,,,,,,,,,,,,,,,,,,,,,,,,,,,,
,,117478,031,1,2024-03-05_22h12.22.997,Memory and Syntax,2023.2.3,Win32,58.47953216,,,,,172.9431,174.9427,n,0,0.7581,,174.9427,174.9427,,0,174.9427,174.9429,,174.9429,174.943,,0,17,17,17,1,cvmt/test_items/t18.jpeg,o,,,,,,,,,,,,,,,,,,,,,,,,,,,,
,,117478,031,1,2024-03-05_22h12.22.997,Memory and Syntax,2023.2.3,Win32,58.47953216,,,,,174.9431,176.9427,n,1,0.6178,,176.9427,176.9428,,0,176.9429,176.943,,176.943,176.9431,,0,18,18,18,1,cvmt/test_items/t19.jpeg,n,,,,,,,,,,,,,,,,,,,,,,,,,,,,
,,117478,031,1,2024-03-05_22h12.22.997,Memory and Syntax,2023.2.3,Win32,58.47953216,,,,,176.9431,178.9426,n,0,1.0391,,178.9426,178.9427,,0,178.9427,178.943,,178.943,178.9431,,0,19,19,19,1,cvmt/test_items/t20.jpeg,o,,,,,,,,,,,,,,,,,,,,,,,,,,,,
,,117478,031,1,2024-03-05_22h12.22.997,Memory and Syntax,2023.2.3,Win32,58.47953216,,,,,178.9432,180.9427,n,0,0.6744,,180.9427,180.9429,,0,180.9429,180.9431,,180.9431,180.9431,,0,20,20,20,1,cvmt/test_items/t21.jpeg,o,,,,,,,,,,,,,,,,,,,,,,,,,,,,
,,117478,031,1,2024-03-05_22h12.22.997,Memory and Syntax,2023.2.3,Win32,58.47953216,,,,,180.9432,182.9426,o,1,1.3889,,182.9426,182.9428,,0,182.9428,182.9429,,182.9429,182.9429,,0,21,21,21,1,cvmt/test_items/t22.jpeg,o,,,,,,,,,,,,,,,,,,,,,,,,,,,,
,,117478,031,1,2024-03-05_22h12.22.997,Memory and Syntax,2023.2.3,Win32,58.47953216,,,,,182.943,184.9427,n,1,0.9028,,184.9427,184.9427,,0,184.9427,184.943,,184.943,184.943,,0,22,22,22,1,cvmt/test_items/t23.jpeg,n,,,,,,,,,,,,,,,,,,,,,,,,,,,,
,,117478,031,1,2024-03-05_22h12.22.997,Memory and Syntax,2023.2.3,Win32,58.47953216,,,,,184.9431,186.9426,n,1,0.7767,,186.9426,186.9427,,0,186.9427,186.943,,186.943,186.943,,0,23,23,23,1,cvmt/test_items/t24.jpeg,n,,,,,,,,,,,,,,,,,,,,,,,,,,,,
,,117478,031,1,2024-03-05_22h12.22.997,Memory and Syntax,2023.2.3,Win32,58.47953216,,,,,186.9431,188.9427,o,1,0.9066,,188.9427,188.9428,,0,188.9429,188.943,,188.943,188.9431,,0,24,24,24,1,cvmt/test_items/t25.jpeg,o,,,,,,,,,,,,,,,,,,,,,,,,,,,,
,,117478,031,1,2024-03-05_22h12.22.997,Memory and Syntax,2023.2.3,Win32,58.47953216,,,,,188.9431,190.9427,n,1,0.6661,,190.9427,190.9428,,0,190.9428,190.943,,190.943,190.943,,0,25,25,25,1,cvmt/test_items/t26.jpeg,n,,,,,,,,,,,,,,,,,,,,,,,,,,,,
,,117478,031,1,2024-03-05_22h12.22.997,Memory and Syntax,2023.2.3,Win32,58.47953216,,,,,190.9431,192.9427,n,0,1.1327,,192.9428,192.9428,,0,192.9428,192.9432,,192.9432,192.9432,,0,26,26,26,1,cvmt/test_items/t27.jpeg,o,,,,,,,,,,,,,,,,,,,,,,,,,,,,
,,117478,031,1,2024-03-05_22h12.22.997,Memory and Syntax,2023.2.3,Win32,58.47953216,,,,,192.9433,194.9426,n,1,1.1344,,194.9427,194.9429,,0,194.9429,194.9431,,194.9431,194.9431,,0,27,27,27,1,cvmt/test_items/t28.jpeg,n,,,,,,,,,,,,,,,,,,,,,,,,,,,,
,,117478,031,1,2024-03-05_22h12.22.997,Memory and Syntax,2023.2.3,Win32,58.47953216,,,,,194.9433,196.9427,n,1,0.6866,,196.9428,196.9429,,0,196.9429,196.9431,,196.9431,196.9431,,0,28,28,28,1,cvmt/test_items/t29.jpeg,n,,,,,,,,,,,,,,,,,,,,,,,,,,,,
,,117478,031,1,2024-03-05_22h12.22.997,Memory and Syntax,2023.2.3,Win32,58.47953216,,,,,196.9433,198.9428,o,1,1.0196,,198.9428,198.9429,,0,198.9429,198.9431,,198.9431,198.9432,,0,29,29,29,1,cvmt/test_items/t30.jpeg,o,,,,,,,,,,,,,,,,,,,,,,,,,,,,
,,117478,031,1,2024-03-05_22h12.22.997,Memory and Syntax,2023.2.3,Win32,58.47953216,,,,,198.9433,200.9427,o,1,1.3724,,200.9427,200.9428,,0,200.9429,200.943,,200.943,200.9431,,0,30,30,30,1,cvmt/test_items/t31.jpeg,o,,,,,,,,,,,,,,,,,,,,,,,,,,,,
,,117478,031,1,2024-03-05_22h12.22.997,Memory and Syntax,2023.2.3,Win32,58.47953216,,,,,200.9433,202.9428,n,1,0.5906,,202.9428,202.943,,0,202.943,202.9432,,202.9432,202.9432,,0,31,31,31,1,cvmt/test_items/t32.jpeg,n,,,,,,,,,,,,,,,,,,,,,,,,,,,,
,,117478,031,1,2024-03-05_22h12.22.997,Memory and Syntax,2023.2.3,Win32,58.47953216,,,,,202.9433,204.9426,n,1,0.705,,204.9427,204.9428,,0,204.9428,204.943,,204.943,204.9431,,0,32,32,32,1,cvmt/test_items/t33.jpeg,n,,,,,,,,,,,,,,,,,,,,,,,,,,,,
,,117478,031,1,2024-03-05_22h12.22.997,Memory and Syntax,2023.2.3,Win32,58.47953216,,,,,204.9432,206.9427,o,1,1.1043,,206.9428,206.9428,,0,206.9428,206.9431,,206.9431,206.9432,,0,33,33,33,1,cvmt/test_items/t34.jpeg,o,,,,,,,,,,,,,,,,,,,,,,,,,,,,
,,117478,031,1,2024-03-05_22h12.22.997,Memory and Syntax,2023.2.3,Win32,58.47953216,,,,,206.9433,208.9428,o,0,0.9491,,208.9428,208.943,,0,208.9431,208.9433,,208.9433,208.9433,,0,34,34,34,1,cvmt/test_items/t35.jpeg,n,,,,,,,,,,,,,,,,,,,,,,,,,,,,
,,117478,031,1,2024-03-05_22h12.22.997,Memory and Syntax,2023.2.3,Win32,58.47953216,,,,,208.9435,210.9426,o,1,0.8973,,210.9427,210.9428,,0,210.9429,210.943,,210.943,210.943,,0,35,35,35,1,cvmt/test_items/t36.jpeg,o,,,,,,,,,,,,,,,,,,,,,,,,,,,,
,,117478,031,1,2024-03-05_22h12.22.997,Memory and Syntax,2023.2.3,Win32,58.47953216,,,,,210.9432,212.9428,o,0,0.9791,,212.9428,212.9429,,0,212.9429,212.943,,212.943,212.9431,,0,36,36,36,1,cvmt/test_items/t37.jpeg,n,,,,,,,,,,,,,,,,,,,,,,,,,,,,
,,117478,031,1,2024-03-05_22h12.22.997,Memory and Syntax,2023.2.3,Win32,58.47953216,,,,,212.9432,214.9427,n,0,1.469,,214.9427,214.9428,,0,214.9428,214.943,,214.943,214.943,,0,37,37,37,1,cvmt/test_items/t38.jpeg,o,,,,,,,,,,,,,,,,,,,,,,,,,,,,
,,117478,031,1,2024-03-05_22h12.22.997,Memory and Syntax,2023.2.3,Win32,58.47953216,,,,,214.943,216.9427,n,1,1.4786,,216.9427,216.9428,,0,216.9428,216.943,,216.943,216.943,,0,38,38,38,1,cvmt/test_items/t39.jpeg,n,,,,,,,,,,,,,,,,,,,,,,,,,,,,
,,117478,031,1,2024-03-05_22h12.22.997,Memory and Syntax,2023.2.3,Win32,58.47953216,,,,,216.9431,218.9428,n,0,0.7069,,218.9428,218.9429,,0,218.9429,218.9431,,218.9431,218.9431,,0,39,39,39,1,cvmt/test_items/t40.jpeg,o,,,,,,,,,,,,,,,,,,,,,,,,,,,,
,,117478,031,1,2024-03-05_22h12.22.997,Memory and Syntax,2023.2.3,Win32,58.47953216,,,,,218.9432,220.9427,n,1,0.802,,220.9428,220.9429,,0,220.9429,220.943,,220.9431,220.9431,,0,40,40,40,1,cvmt/test_items/t41.jpeg,n,,,,,,,,,,,,,,,,,,,,,,,,,,,,
,,117478,031,1,2024-03-05_22h12.22.997,Memory and Syntax,2023.2.3,Win32,58.47953216,,,,,220.9432,222.9427,o,1,1.1011,,222.9427,222.9428,,0,222.9428,222.943,,222.943,222.9431,,0,41,41,41,1,cvmt/test_items/t42.jpeg,o,,,,,,,,,,,,,,,,,,,,,,,,,,,,
,,117478,031,1,2024-03-05_22h12.22.997,Memory and Syntax,2023.2.3,Win32,58.47953216,,,,,222.9431,224.9427,o,1,1.1553,,224.9427,224.9429,,0,224.9429,224.943,,224.943,224.9431,,0,42,42,42,1,cvmt/test_items/t43.jpeg,o,,,,,,,,,,,,,,,,,,,,,,,,,,,,
,,117478,031,1,2024-03-05_22h12.22.997,Memory and Syntax,2023.2.3,Win32,58.47953216,,,,,224.9432,226.9427,n,1,0.6304,,226.9427,226.9428,,0,226.9428,226.9431,,226.9431,226.9432,,0,43,43,43,1,cvmt/test_items/t44.jpeg,n,,,,,,,,,,,,,,,,,,,,,,,,,,,,
,,117478,031,1,2024-03-05_22h12.22.997,Memory and Syntax,2023.2.3,Win32,58.47953216,,,,,226.9432,228.9428,o,1,1.137,,228.9428,228.9429,,0,228.9429,228.9431,,228.9431,228.9431,,0,44,44,44,1,cvmt/test_items/t45.jpeg,o,,,,,,,,,,,,,,,,,,,,,,,,,,,,
,,117478,031,1,2024-03-05_22h12.22.997,Memory and Syntax,2023.2.3,Win32,58.47953216,,,,,228.9433,230.9427,o,1,0.6809,,230.9427,230.9429,,0,230.9429,230.9431,,230.9431,230.9432,,0,45,45,45,1,cvmt/test_items/t46.jpeg,o,,,,,,,,,,,,,,,,,,,,,,,,,,,,
,,117478,031,1,2024-03-05_22h12.22.997,Memory and Syntax,2023.2.3,Win32,58.47953216,,,,,230.9432,232.9429,n,0,1.3815,,232.943,232.9431,,0,232.9431,232.9432,,232.9432,232.9433,,0,46,46,46,1,cvmt/test_items/t47.jpeg,o,,,,,,,,,,,,,,,,,,,,,,,,,,,,
,,117478,031,1,2024-03-05_22h12.22.997,Memory and Syntax,2023.2.3,Win32,58.47953216,,,,,232.9435,234.9427,o,0,0.8996,,234.9427,234.9428,,0,234.9428,234.943,,234.943,234.943,,0,47,47,47,1,cvmt/test_items/t48.jpeg,n,,,,,,,,,,,,,,,,,,,,,,,,,,,,
,,117478,031,1,2024-03-05_22h12.22.997,Memory and Syntax,2023.2.3,Win32,58.47953216,,,,,234.9431,236.9427,o,1,0.8716,,236.9429,236.943,,0,236.943,236.9432,,236.9432,236.9432,,0,48,48,48,1,cvmt/test_items/t49.jpeg,o,,,,,,,,,,,,,,,,,,,,,,,,,,,,
,,117478,031,1,2024-03-05_22h12.22.997,Memory and Syntax,2023.2.3,Win32,58.47953216,,,,,236.9433,238.9428,n,0,0.931,,238.9428,238.9429,,0,238.9429,238.9431,,238.9431,238.9432,,0,49,49,49,1,cvmt/test_items/t50.jpeg,o,,,,,,,,,,,,,,,,,,,,,,,,,,,,
,,117478,031,1,2024-03-05_22h12.22.997,Memory and Syntax,2023.2.3,Win32,58.47953216,,,,,238.9433,240.9428,n,1,0.8856,,240.9428,240.9428,,0,240.9428,240.9431,,240.9431,240.9431,,0,50,50,50,1,cvmt/test_items/t51.jpeg,n,,,,,,,,,,,,,,,,,,,,,,,,,,,,
,,117478,031,1,2024-03-05_22h12.22.997,Memory and Syntax,2023.2.3,Win32,58.47953216,,,,,240.9432,242.9428,o,1,0.8896,,242.9428,242.9429,,0,242.943,242.9433,,242.9433,242.9433,,0,51,51,51,1,cvmt/test_items/t52.jpeg,o,,,,,,,,,,,,,,,,,,,,,,,,,,,,
,,117478,031,1,2024-03-05_22h12.22.997,Memory and Syntax,2023.2.3,Win32,58.47953216,,,,,242.9434,244.9427,,0,,,244.9427,245.526,o,1,245.5261,245.5312,,245.5312,245.5312,,0,52,52,52,1,cvmt/test_items/t53.jpeg,o,,,,,0.5753,,,,,,,,,,,,,,,,,,,,,,,
,,117478,031,1,2024-03-05_22h12.22.997,Memory and Syntax,2023.2.3,Win32,58.47953216,,,,,245.5314,247.5262,o,1,1.2457,,247.5262,247.5273,,0,247.5273,247.5276,,247.5276,247.5276,,0,53,53,53,1,cvmt/test_items/t54.jpeg,o,,,,,,,,,,,,,,,,,,,,,,,,,,,,
,,117478,031,1,2024-03-05_22h12.22.997,Memory and Syntax,2023.2.3,Win32,58.47953216,,,,,247.5276,249.5264,o,1,0.9044,,249.5264,249.5265,,0,249.5265,249.5267,,249.5268,249.5268,,0,54,54,54,1,cvmt/test_items/t55.jpeg,o,,,,,,,,,,,,,,,,,,,,,,,,,,,,
,,117478,031,1,2024-03-05_22h12.22.997,Memory and Syntax,2023.2.3,Win32,58.47953216,,,,,249.5269,251.5262,n,0,0.931,,251.5262,251.5263,,0,251.5263,251.5266,,251.5266,251.5266,,0,55,55,55,1,cvmt/test_items/t56.jpeg,o,,,,,,,,,,,,,,,,,,,,,,,,,,,,
,,117478,031,1,2024-03-05_22h12.22.997,Memory and Syntax,2023.2.3,Win32,58.47953216,,,,,251.5267,253.5261,o,1,1.2843,,253.5261,253.5262,,0,253.5262,253.5264,,253.5264,253.5264,,0,56,56,56,1,cvmt/test_items/t57.jpeg,o,,,,,,,,,,,,,,,,,,,,,,,,,,,,
,,117478,031,1,2024-03-05_22h12.22.997,Memory and Syntax,2023.2.3,Win32,58.47953216,,,,,253.5266,255.5262,n,1,0.7899,,255.5262,255.5263,,0,255.5263,255.5266,,255.5266,255.5266,,0,57,57,57,1,cvmt/test_items/t58.jpeg,n,,,,,,,,,,,,,,,,,,,,,,,,,,,,
,,117478,031,1,2024-03-05_22h12.22.997,Memory and Syntax,2023.2.3,Win32,58.47953216,,,,,255.5267,257.5261,n,1,1.4015,,257.5262,257.5262,,0,257.5262,257.5264,,257.5264,257.5265,,0,58,58,58,1,cvmt/test_items/t59.jpeg,n,,,,,,,,,,,,,,,,,,,,,,,,,,,,
,,117478,031,1,2024-03-05_22h12.22.997,Memory and Syntax,2023.2.3,Win32,58.47953216,,,,,257.5266,259.5261,o,1,1.0386,,259.5261,259.5262,,0,259.5262,259.5264,,259.5264,259.5265,,0,59,59,59,1,cvmt/test_items/t60.jpeg,o,,,,,,,,,,,,,,,,,,,,,,,,,,,,
,,117478,031,1,2024-03-05_22h12.22.997,Memory and Syntax,2023.2.3,Win32,58.47953216,,,,,259.5266,261.5261,n,0,1.387,,261.5262,261.5263,,0,261.5263,261.5265,,261.5265,261.5265,,0,60,60,60,1,cvmt/test_items/t61.jpeg,o,,,,,,,,,,,,,,,,,,,,,,,,,,,,
,,117478,031,1,2024-03-05_22h12.22.997,Memory and Syntax,2023.2.3,Win32,58.47953216,,,,,261.5266,263.5262,o,1,0.9872,,263.5262,263.5262,,0,263.5263,263.5265,,263.5266,263.5266,,0,61,61,61,1,cvmt/test_items/t62.jpeg,o,,,,,,,,,,,,,,,,,,,,,,,,,,,,
,,117478,031,1,2024-03-05_22h12.22.997,Memory and Syntax,2023.2.3,Win32,58.47953216,,,,,263.5267,265.5262,o,1,0.8421,,265.5262,265.5263,,0,265.5263,265.5265,,265.5265,265.5265,,0,62,62,62,1,cvmt/test_items/t63.jpeg,o,,,,,,,,,,,,,,,,,,,,,,,,,,,,
,,117478,031,1,2024-03-05_22h12.22.997,Memory and Syntax,2023.2.3,Win32,58.47953216,,,,,265.5266,267.5261,n,0,1.3731,,267.5261,267.5262,,0,267.5262,267.5264,,267.5265,267.5265,,0,63,63,63,1,cvmt/test_items/t64.jpeg,o,,,,,,,,,,,,,,,,,,,,,,,,,,,,
,,117478,031,1,2024-03-05_22h12.22.997,Memory and Syntax,2023.2.3,Win32,58.47953216,,,,,267.5266,269.526,o,1,0.9497,,269.5261,269.5262,,0,269.5262,269.5264,,269.5264,269.5265,,0,64,64,64,1,cvmt/test_items/t65.jpeg,o,,,,,,,,,,,,,,,,,,,,,,,,,,,,
,,117478,031,1,2024-03-05_22h12.22.997,Memory and Syntax,2023.2.3,Win32,58.47953216,,,,,269.5266,271.5261,o,1,0.9154,,271.5262,271.5263,,0,271.5263,271.5265,,271.5265,271.5265,,0,65,65,65,1,cvmt/test_items/t66.jpeg,o,,,,,,,,,,,,,,,,,,,,,,,,,,,,
,,117478,031,1,2024-03-05_22h12.22.997,Memory and Syntax,2023.2.3,Win32,58.47953216,,,,,271.5266,273.5262,n,1,1.0147,,273.5262,273.5263,,0,273.5263,273.5265,,273.5265,273.5265,,0,66,66,66,1,cvmt/test_items/t67.jpeg,n,,,,,,,,,,,,,,,,,,,,,,,,,,,,
,,117478,031,1,2024-03-05_22h12.22.997,Memory and Syntax,2023.2.3,Win32,58.47953216,,,,,273.5266,275.5261,n,0,0.8196,,275.5262,275.5262,,0,275.5262,275.5264,,275.5264,275.5264,,0,67,67,67,1,cvmt/test_items/t68.jpeg,o,,,,,,,,,,,,,,,,,,,,,,,,,,,,
,,117478,031,1,2024-03-05_22h12.22.997,Memory and Syntax,2023.2.3,Win32,58.47953216,,,,,275.5265,277.5262,n,0,0.9166,,277.5263,277.5263,,0,277.5263,277.527,,277.527,277.527,,0,68,68,68,1,cvmt/test_items/t69.jpeg,o,,,,,,,,,,,,,,,,,,,,,,,,,,,,
,,117478,031,1,2024-03-05_22h12.22.997,Memory and Syntax,2023.2.3,Win32,58.47953216,,,,,277.5273,279.5261,o,1,0.9212,,279.5261,279.5263,,0,279.5263,279.5264,,279.5264,279.5265,,0,69,69,69,1,cvmt/test_items/t70.jpeg,o,,,,,,,,,,,,,,,,,,,,,,,,,,,,
,,117478,031,1,2024-03-05_22h12.22.997,Memory and Syntax,2023.2.3,Win32,58.47953216,,,,,279.5266,281.5261,o,0,0.8374,,281.5261,281.5263,,0,281.5263,281.5265,,281.5265,281.5266,,0,70,70,70,1,cvmt/test_items/t71.jpeg,n,,,,,,,,,,,,,,,,,,,,,,,,,,,,
,,117478,031,1,2024-03-05_22h12.22.997,Memory and Syntax,2023.2.3,Win32,58.47953216,,,,,281.5266,283.5261,o,1,1.0685,,283.5261,283.5262,,0,283.5262,283.5265,,283.5265,283.5265,,0,71,71,71,1,cvmt/test_items/t72.jpeg,o,,,,,,,,,,,,,,,,,,,,,,,,,,,,
,,117478,031,1,2024-03-05_22h12.22.997,Memory and Syntax,2023.2.3,Win32,58.47953216,,,,,283.5267,285.5261,o,1,0.8358,,285.5262,285.5263,,0,285.5264,285.5266,,285.5266,285.5266,,0,72,72,72,1,cvmt/test_items/t73.jpeg,o,,,,,,,,,,,,,,,,,,,,,,,,,,,,
,,117478,031,1,2024-03-05_22h12.22.997,Memory and Syntax,2023.2.3,Win32,58.47953216,,,,,285.5267,287.5262,n,0,1.0329,,287.5262,287.5262,,0,287.5262,287.5265,,287.5265,287.5265,,0,73,73,73,1,cvmt/test_items/t74.jpeg,o,,,,,,,,,,,,,,,,,,,,,,,,,,,,
,,117478,031,1,2024-03-05_22h12.22.997,Memory and Syntax,2023.2.3,Win32,58.47953216,,,,,287.5267,289.5262,o,1,0.9888,,289.5263,289.5263,,0,289.5263,289.5266,,289.5266,289.5266,,0,74,74,74,1,cvmt/test_items/t75.jpeg,o,,,,,,,,,,,,,,,,,,,,,,,,,,,,
,,117478,031,1,2024-03-05_22h12.22.997,Memory and Syntax,2023.2.3,Win32,58.47953216,,,,,289.5267,291.5261,o,1,0.7952,,291.5261,291.5262,,0,291.5262,291.5265,,291.5265,291.5265,,0,75,75,75,1,cvmt/test_items/t76.jpeg,o,,,,,,,,,,,,,,,,,,,,,,,,,,,,
,,117478,031,1,2024-03-05_22h12.22.997,Memory and Syntax,2023.2.3,Win32,58.47953216,,,,,291.5266,293.5261,n,0,1.1845,,293.5262,293.5263,,0,293.5263,293.5264,,293.5264,293.5265,,0,76,76,76,1,cvmt/test_items/t77.jpeg,o,,,,,,,,,,,,,,,,,,,,,,,,,,,,
,,117478,031,1,2024-03-05_22h12.22.997,Memory and Syntax,2023.2.3,Win32,58.47953216,,,,,293.5266,295.5262,o,1,1.302,,295.5262,295.5263,,0,295.5263,295.5264,,295.5264,295.5265,,0,77,77,77,1,cvmt/test_items/t78.jpeg,o,,,,,,,,,,,,,,,,,,,,,,,,,,,,
,,117478,031,1,2024-03-05_22h12.22.997,Memory and Syntax,2023.2.3,Win32,58.47953216,,,,,295.5265,297.5261,n,0,0.7414,,297.5261,297.5263,,0,297.5263,297.5265,,297.5265,297.5265,,0,78,78,78,1,cvmt/test_items/t79.jpeg,o,,,,,,,,,,,,,,,,,,,,,,,,,,,,
,,117478,031,1,2024-03-05_22h12.22.997,Memory and Syntax,2023.2.3,Win32,58.47953216,,,,,297.5267,299.5261,n,1,1.3398,,299.5262,299.5264,,0,299.5264,299.5266,,299.5266,299.5266,,0,79,79,79,1,cvmt/test_items/t80.jpeg,n,,,,,,,,,,,,,,,,,,,,,,,,,,,,
,,117478,031,1,2024-03-05_22h12.22.997,Memory and Syntax,2023.2.3,Win32,58.47953216,,,,,299.5267,301.5265,n,0,1.2879,,301.5265,301.5267,,0,301.5267,301.5269,,301.5269,301.527,,0,80,80,80,1,cvmt/test_items/t81.jpeg,o,,,,,,,,,,,,,,,,,,,,,,,,,,,,
,,117478,031,1,2024-03-05_22h12.22.997,Memory and Syntax,2023.2.3,Win32,58.47953216,,,,,301.527,303.5262,o,1,0.6308,,303.5262,303.5263,,0,303.5263,303.5265,,303.5265,303.5266,,0,81,81,81,1,cvmt/test_items/t82.jpeg,o,,,,,,,,,,,,,,,,,,,,,,,,,,,,
,,117478,031,1,2024-03-05_22h12.22.997,Memory and Syntax,2023.2.3,Win32,58.47953216,,,,,303.5266,305.5262,o,1,0.8417,,305.5262,305.5263,,0,305.5264,305.5265,,305.5265,305.5265,,0,82,82,82,1,cvmt/test_items/t83.jpeg,o,,,,,,,,,,,,,,,,,,,,,,,,,,,,
,,117478,031,1,2024-03-05_22h12.22.997,Memory and Syntax,2023.2.3,Win32,58.47953216,,,,,305.5266,307.5261,o,1,0.7304,,307.5262,307.5263,,0,307.5263,307.5265,,307.5265,307.5265,,0,83,83,83,1,cvmt/test_items/t84.jpeg,o,,,,,,,,,,,,,,,,,,,,,,,,,,,,
,,117478,031,1,2024-03-05_22h12.22.997,Memory and Syntax,2023.2.3,Win32,58.47953216,,,,,307.5266,309.5262,n,0,0.6836,,309.5263,309.5264,,0,309.5264,309.5266,,309.5266,309.5266,,0,84,84,84,1,cvmt/test_items/t85.jpeg,o,,,,,,,,,,,,,,,,,,,,,,,,,,,,
,,117478,031,1,2024-03-05_22h12.22.997,Memory and Syntax,2023.2.3,Win32,58.47953216,,,,,309.5267,311.5264,,0,,,311.5265,312.7761,o,1,312.7762,312.7764,,312.7765,312.7765,,0,85,85,85,1,cvmt/test_items/t86.jpeg,o,,,,,1.2333,,,,,,,,,,,,,,,,,,,,,,,
,,117478,031,1,2024-03-05_22h12.22.997,Memory and Syntax,2023.2.3,Win32,58.47953216,,,,,312.7766,314.7761,o,1,1.6656,,314.7761,314.7762,,0,314.7762,314.7764,,314.7764,314.7764,,0,86,86,86,1,cvmt/test_items/t87.jpeg,o,,,,,,,,,,,,,,,,,,,,,,,,,,,,
,,117478,031,1,2024-03-05_22h12.22.997,Memory and Syntax,2023.2.3,Win32,58.47953216,,,,,314.7766,316.7763,n,1,0.7598,,316.7763,316.7764,,0,316.7764,316.7766,,316.7766,316.7767,,0,87,87,87,1,cvmt/test_items/t88.jpeg,n,,,,,,,,,,,,,,,,,,,,,,,,,,,,
,,117478,031,1,2024-03-05_22h12.22.997,Memory and Syntax,2023.2.3,Win32,58.47953216,,,,,316.7767,318.7761,o,0,1.4163,,318.7761,318.7763,,0,318.7763,318.7764,,318.7764,318.7765,,0,88,88,88,1,cvmt/test_items/t89.jpeg,n,,,,,,,,,,,,,,,,,,,,,,,,,,,,
,,117478,031,1,2024-03-05_22h12.22.997,Memory and Syntax,2023.2.3,Win32,58.47953216,,,,,318.7766,320.7762,o,1,1.0339,,320.7762,320.7763,,0,320.7763,320.7764,,320.7765,320.7765,,0,89,89,89,1,cvmt/test_items/t90.jpeg,o,,,,,,,,,,,,,,,,,,,,,,,,,,,,
,,117478,031,1,2024-03-05_22h12.22.997,Memory and Syntax,2023.2.3,Win32,58.47953216,,,,,320.7767,322.7762,n,0,1.1978,,322.7762,322.7763,,0,322.7763,322.7766,,322.7766,322.7766,,0,90,90,90,1,cvmt/test_items/t91.jpeg,o,,,,,,,,,,,,,,,,,,,,,,,,,,,,
,,117478,031,1,2024-03-05_22h12.22.997,Memory and Syntax,2023.2.3,Win32,58.47953216,,,,,322.7767,324.7762,n,0,1.2983,,324.7762,324.7763,,0,324.7763,324.7765,,324.7765,324.7765,,0,91,91,91,1,cvmt/test_items/t92.jpeg,o,,,,,,,,,,,,,,,,,,,,,,,,,,,,
,,117478,031,1,2024-03-05_22h12.22.997,Memory and Syntax,2023.2.3,Win32,58.47953216,,,,,324.7766,326.7762,o,1,0.943,,326.7762,326.7764,,0,326.7764,326.7766,,326.7766,326.7766,,0,92,92,92,1,cvmt/test_items/t93.jpeg,o,,,,,,,,,,,,,,,,,,,,,,,,,,,,
,,117478,031,1,2024-03-05_22h12.22.997,Memory and Syntax,2023.2.3,Win32,58.47953216,,,,,326.7767,328.7762,n,0,0.9515,,328.7762,328.7763,,0,328.7764,328.7766,,328.7766,328.7766,,0,93,93,93,1,cvmt/test_items/t94.jpeg,o,,,,,,,,,,,,,,,,,,,,,,,,,,,,
,,117478,031,1,2024-03-05_22h12.22.997,Memory and Syntax,2023.2.3,Win32,58.47953216,,,,,328.7767,330.7762,o,1,0.7509,,330.7762,330.7764,,0,330.7764,330.7765,,330.7765,330.7765,,0,94,94,94,1,cvmt/test_items/t95.jpeg,o,,,,,,,,,,,,,,,,,,,,,,,,,,,,
,,117478,031,1,2024-03-05_22h12.22.997,Memory and Syntax,2023.2.3,Win32,58.47953216,,,,,330.7767,332.7763,o,1,0.7975,,332.7763,332.7764,,0,332.7764,332.7765,,332.7765,332.7765,,0,95,95,95,1,cvmt/test_items/t96.jpeg,o,,,,,,,,,,,,,,,,,,,,,,,,,,,,
,,117478,031,1,2024-03-05_22h12.22.997,Memory and Syntax,2023.2.3,Win32,58.47953216,,,,,332.7767,334.7762,n,0,0.7844,,334.7763,334.7763,,0,334.7764,334.7766,,334.7766,334.7766,,0,96,96,96,1,cvmt/test_items/t97.jpeg,o,,,,,,,,,,,,,,,,,,,,,,,,,,,,
,,117478,031,1,2024-03-05_22h12.22.997,Memory and Syntax,2023.2.3,Win32,58.47953216,,,,,334.7768,336.7768,,0,,,336.7768,336.7929,n,1,336.7929,336.7931,,336.7931,336.7931,,0,97,97,97,1,cvmt/test_items/t98.jpeg,n,,,,,0.0064,,,,,,,,,,,,,,,,,,,,,,,
,,117478,031,1,2024-03-05_22h12.22.997,Memory and Syntax,2023.2.3,Win32,58.47953216,,,,,336.7932,338.7929,n,0,1.697,,338.7929,338.793,,0,338.793,338.7932,,338.7932,338.7932,,0,98,98,98,1,cvmt/test_items/t99.jpeg,o,,,,,,,,,,,,,,,,,,,,,,,,,,,,
,,117478,031,1,2024-03-05_22h12.22.997,Memory and Syntax,2023.2.3,Win32,58.47953216,,,,,338.7933,340.7929,o,1,1.164,,340.7929,340.793,,0,340.793,340.7933,,340.7933,340.7933,,0,99,99,99,1,cvmt/test_items/t100.jpeg,o,,,,,,,,,,,,,,,,,,,,,,,,,,,,
,,117478,031,1,2024-03-05_22h12.22.997,Memory and Syntax,2023.2.3,Win32,58.47953216,,,,,340.7934,342.7929,n,0,1.1703,,342.7929,342.793,,0,342.793,342.7932,,342.7932,342.7932,,0,100,100,100,1,cvmt/test_items/t101.jpeg,o,,,,,,,,,,,,,,,,,,,,,,,,,,,,
,,117478,031,1,2024-03-05_22h12.22.997,Memory and Syntax,2023.2.3,Win32,58.47953216,,,,,342.7933,344.7929,o,1,0.6694,,344.793,344.793,,0,344.793,344.7932,,344.7932,344.7933,,0,101,101,101,1,cvmt/test_items/t102.jpeg,o,,,,,,,,,,,,,,,,,,,,,,,,,,,,
,,117478,031,1,2024-03-05_22h12.22.997,Memory and Syntax,2023.2.3,Win32,58.47953216,,,,,344.7934,346.793,n,0,0.9976,,346.793,346.7931,,0,346.7931,346.7933,,346.7933,346.7934,,0,102,102,102,1,cvmt/test_items/t103.jpeg,o,,,,,,,,,,,,,,,,,,,,,,,,,,,,
,,117478,031,1,2024-03-05_22h12.22.997,Memory and Syntax,2023.2.3,Win32,58.47953216,,,,,346.7934,348.7929,o,1,0.8165,,348.7929,348.793,,0,348.793,348.7933,,348.7933,348.7933,,0,103,103,103,1,cvmt/test_items/t104.jpeg,o,,,,,,,,,,,,,,,,,,,,,,,,,,,,
,,117478,031,1,2024-03-05_22h12.22.997,Memory and Syntax,2023.2.3,Win32,58.47953216,,,,,348.7933,350.793,n,1,0.6544,,350.793,350.7931,,0,350.7931,350.7933,,350.7933,350.7933,,0,104,104,104,1,cvmt/test_items/t105.jpeg,n,,,,,,,,,,,,,,,,,,,,,,,,,,,,
,,117478,031,1,2024-03-05_22h12.22.997,Memory and Syntax,2023.2.3,Win32,58.47953216,,,,,350.7935,352.793,o,1,0.8518,,352.793,352.793,,0,352.793,352.7933,,352.7933,352.7933,,0,105,105,105,1,cvmt/test_items/t106.jpeg,o,,,,,,,,,,,,,,,,,,,,,,,,,,,,
,,117478,031,1,2024-03-05_22h12.22.997,Memory and Syntax,2023.2.3,Win32,58.47953216,,,,,352.7934,354.793,o,1,1.1971,,354.793,354.7931,,0,354.7931,354.7933,,354.7933,354.7933,,0,106,106,106,1,cvmt/test_items/t107.jpeg,o,,,,,,,,,,,,,,,,,,,,,,,,,,,,
,,117478,031,1,2024-03-05_22h12.22.997,Memory and Syntax,2023.2.3,Win32,58.47953216,,,,,354.7934,356.7929,n,0,0.6482,,356.7929,356.7931,,0,356.7931,356.7933,,356.7933,356.7933,,0,107,107,107,1,cvmt/test_items/t108.jpeg,o,,,,,,,,,,,,,,,,,,,,,,,,,,,,
,,117478,031,1,2024-03-05_22h12.22.997,Memory and Syntax,2023.2.3,Win32,58.47953216,,,,,356.7934,358.793,n,0,1.149,,358.793,358.7931,,0,358.7931,358.7933,,358.7933,358.7933,,0,108,108,108,1,cvmt/test_items/t109.jpeg,o,,,,,,,,,,,,,,,,,,,,,,,,,,,,
,,117478,031,1,2024-03-05_22h12.22.997,Memory and Syntax,2023.2.3,Win32,58.47953216,,,,,358.7935,360.7929,n,0,1.2725,,360.7929,360.793,,0,360.7931,360.7933,,360.7933,360.7933,,0,109,109,109,1,cvmt/test_items/t110.jpeg,o,,,,,,,,,,,,,,,,,,,,,,,,,,,,
,,117478,031,1,2024-03-05_22h12.22.997,Memory and Syntax,2023.2.3,Win32,58.47953216,,,,,360.7934,362.7929,o,1,1.1714,,362.7929,362.793,,0,362.7931,362.7933,,362.7934,362.7934,,0,110,110,110,1,cvmt/test_items/t111.jpeg,o,,,,,,,,,,,,,,,,,,,,,,,,,,,,
,,117478,031,1,2024-03-05_22h12.22.997,Memory and Syntax,2023.2.3,Win32,58.47953216,,,,,362.7935,364.793,o,1,1.0308,,364.793,364.793,,0,364.793,364.7932,,364.7932,364.7933,,0,111,111,111,1,cvmt/test_items/t112.jpeg,o,,,,,,,,,,,,,,,,,,,,,,,,,,,,
,,117478,031,1,2024-03-05_22h12.22.997,Memory and Syntax,2023.2.3,Win32,58.47953216,,,,,364.7934,366.7929,o,0,1.3877,,366.7929,366.793,,0,366.793,366.7932,,366.7932,366.7932,,0,112,112,112,1,cvmt/test_items/t113.jpeg,n,,,,,,,,,,,,,,,,,,,,,,,,,,,,
,,117478,031,1,2024-03-05_22h12.22.997,Memory and Syntax,2023.2.3,Win32,58.47953216,,,,,366.7933,368.7931,n,0,1.2135,,368.7931,368.7932,,0,368.7932,368.7934,,368.7934,368.7934,,0,113,113,113,1,cvmt/test_items/t114.jpeg,o,,,,,,,,,,,,,,,,,,,,,,,,,,,,
,,117478,031,1,2024-03-05_22h12.22.997,Memory and Syntax,2023.2.3,Win32,58.47953216,,,,,368.7935,370.793,o,1,0.9523,,370.7931,370.7932,,0,370.7932,370.7933,,370.7933,370.7933,,0,114,114,114,1,cvmt/test_items/t115.jpeg,o,,,,,,,,,,,,,,,,,,,,,,,,,,,,
,,117478,031,1,2024-03-05_22h12.22.997,Memory and Syntax,2023.2.3,Win32,58.47953216,,,,,370.7935,372.7933,n,0,0.8876,,372.7934,372.7934,,0,372.7934,372.7937,,372.7937,372.7938,,0,115,115,115,1,cvmt/test_items/t116.jpeg,o,,,,,,,,,,,,,,,,,,,,,,,,,,,,
,,117478,031,1,2024-03-05_22h12.22.997,Memory and Syntax,2023.2.3,Win32,58.47953216,,,,,372.7939,374.793,o,1,0.8644,,374.793,374.7931,,0,374.7931,374.7933,,374.7934,374.7934,,0,116,116,116,1,cvmt/test_items/t117.jpeg,o,,,,,,,,,,,,,,,,,,,,,,,,,,,,
,,117478,031,1,2024-03-05_22h12.22.997,Memory and Syntax,2023.2.3,Win32,58.47953216,,,,,374.7935,376.793,o,1,0.8385,,376.793,376.793,,0,376.793,376.7932,,376.7932,376.7932,,0,117,117,117,1,cvmt/test_items/t118.jpeg,o,,,,,,,,,,,,,,,,,,,,,,,,,,,,
,,117478,031,1,2024-03-05_22h12.22.997,Memory and Syntax,2023.2.3,Win32,58.47953216,,,,,376.7933,378.7929,o,1,1.152,,378.7929,378.7931,,0,378.7931,378.7933,,378.7933,378.7934,,0,118,118,118,1,cvmt/test_items/t119.jpeg,o,,,,,,,,,,,,,,,,,,,,,,,,,,,,
,,117478,031,1,2024-03-05_22h12.22.997,Memory and Syntax,2023.2.3,Win32,58.47953216,,,,,378.7934,380.7928,o,1,0.7949,,380.7929,380.793,,0,380.793,380.7932,,380.7932,380.7932,,0,119,119,119,1,cvmt/test_items/t120.jpeg,o,,,,,,,,,,,,,,,,,,,,,,,,,,,,
,,117478,031,1,2024-03-05_22h12.22.997,Memory and Syntax,2023.2.3,Win32,58.47953216,,,,,380.7933,382.793,n,0,0.8584,,382.793,382.793,,0,382.7931,382.7933,,382.7933,382.7933,,0,120,120,120,1,cvmt/test_items/t121.jpeg,o,,,,,,,,,,,,,,,,,,,,,,,,,,,,
,,117478,031,1,2024-03-05_22h12.22.997,Memory and Syntax,2023.2.3,Win32,58.47953216,,,,,382.7934,384.7931,o,1,0.7357,,384.7931,384.7932,,0,384.7932,384.7934,,384.7934,384.7935,,0,121,121,121,1,cvmt/test_items/t122.jpeg,o,,,,,,,,,,,,,,,,,,,,,,,,,,,,
,,117478,031,1,2024-03-05_22h12.22.997,Memory and Syntax,2023.2.3,Win32,58.47953216,,,,,384.7935,386.7929,,0,,,386.7929,387.2762,o,0,387.2763,387.2765,,387.2765,387.2766,,0,122,122,122,1,cvmt/test_items/t123.jpeg,n,,,,,0.4653,,,,,,,,,,,,,,,,,,,,,,,
,,117478,031,1,2024-03-05_22h12.22.997,Memory and Syntax,2023.2.3,Win32,58.47953216,,,,,387.2766,389.2763,o,1,0.9448,,389.2763,389.2764,,0,389.2764,389.2765,,389.2765,389.2765,,0,123,123,123,1,cvmt/test_items/t124.jpeg,o,,,,,,,,,,,,,,,,,,,,,,,,,,,,
,,117478,031,1,2024-03-05_22h12.22.997,Memory and Syntax,2023.2.3,Win32,58.47953216,,,,,389.2767,391.2762,,0,,,391.2763,392.5098,o,1,392.5098,392.5147,,392.5147,392.5147,,0,124,124,124,1,cvmt/test_items/t125.jpeg,o,,,,,1.2201,,,,,,,,,,,,,,,,,,,,,,,
,,117478,031,1,2024-03-05_22h12.22.997,Memory and Syntax,2023.2.3,Win32,58.47953216,,,,,392.5148,394.5096,o,1,1.0001,,394.5096,394.5105,,0,394.5105,394.5107,,394.5107,394.5107,,0,125,125,125,1,cvmt/test_items/t126.jpeg,o,,,,,,,,,,,,,,,,,,,,,,,,,,,,
,,117478,031,1,2024-03-05_22h12.22.997,Memory and Syntax,2023.2.3,Win32,58.47953216,,,,,394.5107,396.5096,o,1,0.7026,,396.5096,396.5097,,0,396.5097,396.5099,,396.5099,396.5099,,0,126,126,126,1,cvmt/test_items/t127.jpeg,o,,,,,,,,,,,,,,,,,,,,,,,,,,,,
,,117478,031,1,2024-03-05_22h12.22.997,Memory and Syntax,2023.2.3,Win32,58.47953216,,,,,396.5101,398.5096,n,0,1.3691,,398.5096,398.5097,,0,398.5097,398.5099,,398.5099,398.5099,,0,127,127,127,1,cvmt/test_items/t128.jpeg,o,,,,,,,,,,,,,,,,,,,,,,,,,,,,
,,117478,031,1,2024-03-05_22h12.22.997,Memory and Syntax,2023.2.3,Win32,58.47953216,,,,,398.5101,400.5095,n,0,0.7723,,400.5096,400.5096,,0,400.5097,400.5099,,400.5099,400.5099,,0,128,128,128,1,cvmt/test_items/t129.jpeg,o,,,,,,,,,,,,,,,,,,,,,,,,,,,,
,,117478,031,1,2024-03-05_22h12.22.997,Memory and Syntax,2023.2.3,Win32,58.47953216,,,,,400.51,402.5096,,0,,,402.5096,441.4097,o,1,441.4098,441.4152,,441.4152,441.4152,,0,129,129,129,1,cvmt/test_items/t130.jpeg,o,,,,,38.8823,0.0033,,,,,,,,,,,,,,,,,,,,,,
,,117478,031,1,2024-03-05_22h12.22.997,Memory and Syntax,2023.2.3,Win32,58.47953216,,,,,441.4153,443.4097,,0,,,443.4097,443.7765,o,0,443.7766,443.7769,,443.7769,443.7769,,0,130,130,130,1,cvmt/test_items/t131.jpeg,n,,,,,0.3543,,,,,,,,,,,,,,,,,,,,,,,
,,117478,031,1,2024-03-05_22h12.22.997,Memory and Syntax,2023.2.3,Win32,58.47953216,,,,,443.777,445.7763,o,1,0.7499,,445.7763,445.7774,,0,445.7774,445.7776,,445.7776,445.7776,,0,131,131,131,1,cvmt/test_items/t132.jpeg,o,,,,,,,,,,,,,,,,,,,,,,,,,,,,
,,117478,031,1,2024-03-05_22h12.22.997,Memory and Syntax,2023.2.3,Win32,58.47953216,,,,,445.7777,447.7763,o,1,1.0245,,447.7764,447.7765,,0,447.7765,447.7766,,447.7766,447.7767,,0,132,132,132,1,cvmt/test_items/t133.jpeg,o,,,,,,,,,,,,,,,,,,,,,,,,,,,,
,,117478,031,1,2024-03-05_22h12.22.997,Memory and Syntax,2023.2.3,Win32,58.47953216,,,,,447.7768,449.7764,n,0,0.7815,,449.7764,449.7765,,0,449.7765,449.7767,,449.7767,449.7767,,0,133,133,133,1,cvmt/test_items/t134.jpeg,o,,,,,,,,,,,,,,,,,,,,,,,,,,,,
,,117478,031,1,2024-03-05_22h12.22.997,Memory and Syntax,2023.2.3,Win32,58.47953216,,,,,449.7767,451.7764,o,1,1.0433,,451.7765,451.7766,,0,451.7766,451.7769,,451.7769,451.7769,,0,134,134,134,1,cvmt/test_items/t135.jpeg,o,,,,,,,,,,,,,,,,,,,,,,,,,,,,
,,117478,031,1,2024-03-05_22h12.22.997,Memory and Syntax,2023.2.3,Win32,58.47953216,,,,,,,,,,,,,,,,,,,,,,,,,,,,,,,,,,451.7772,451.7773,0.0001,451.7822,464.4936,space,12.137,,464.4979,471.3606,1,6.8593,0,0,0,0,1,1,1,WOV,8B,Practiced the virtuoso many pieces.
,,117478,031,1,2024-03-05_22h12.22.997,Memory and Syntax,2023.2.3,Win32,58.47953216,,,,,,,,,,,,,,,,,,,,,,,,,,,,,,,,,,,,,,,,,,471.3607,474.8763,7,3.5103,0,1,1,1,1,1,2,AS,6A,The rickety old boat sank.
,,117478,031,1,2024-03-05_22h12.22.997,Memory and Syntax,2023.2.3,Win32,58.47953216,,,,,,,,,,,,,,,,,,,,,,,,,,,,,,,,,,,,,,,,,,474.8765,478.1431,6,3.2533,0,2,2,2,1,1,3,WO,6A,The waiter set the table promptly.
,,117478,031,1,2024-03-05_22h12.22.997,Memory and Syntax,2023.2.3,Win32,58.47953216,,,,,,,,,,,,,,,,,,,,,,,,,,,,,,,,,,,,,,,,,,478.1433,483.8097,1,5.6619,0,3,3,3,1,1,4,control,12B,They anticipate that everybody you do will contact Megan.
,,117478,031,1,2024-03-05_22h12.22.997,Memory and Syntax,2023.2.3,Win32,58.47953216,,,,,,,,,,,,,,,,,,,,,,,,,,,,,,,,,,,,,,,,,,483.8098,486.3099,6.8,2.4887,0,4,4,4,1,1,5,ASV,11B,The cat moved himself away.
,,117478,031,1,2024-03-05_22h12.22.997,Memory and Syntax,2023.2.3,Win32,58.47953216,,,,,,,,,,,,,,,,,,,,,,,,,,,,,,,,,,,,,,,,,,486.3101,489.3432,1.3,3.0271,0,5,5,5,1,1,6,ASV,7B,She laughed herself at the dog.
,,117478,031,1,2024-03-05_22h12.22.997,Memory and Syntax,2023.2.3,Win32,58.47953216,,,,,,,,,,,,,,,,,,,,,,,,,,,,,,,,,,,,,,,,,,489.3434,493.3431,5,3.9862,0,6,6,6,1,1,7,AS,5A,The professor cried about the article.
,,117478,031,1,2024-03-05_22h12.22.997,Memory and Syntax,2023.2.3,Win32,58.47953216,,,,,,,,,,,,,,,,,,,,,,,,,,,,,,,,,,,,,,,,,,493.3434,496.3265,6,2.9694,0,7,7,7,1,1,8,WO,5A,My sibling expected a good grade.
,,117478,031,1,2024-03-05_22h12.22.997,Memory and Syntax,2023.2.3,Win32,58.47953216,,,,,,,,,,,,,,,,,,,,,,,,,,,,,,,,,,,,,,,,,,496.3267,503.1097,2.9,6.777,0,8,8,8,1,1,9,filler,1A,There has been a man considered violent.
,,117478,031,1,2024-03-05_22h12.22.997,Memory and Syntax,2023.2.3,Win32,58.47953216,,,,,,,,,,,,,,,,,,,,,,,,,,,,,,,,,,,,,,,,,,503.1098,506.5598,5.7,3.4459,0,9,9,9,1,1,10,AS,2A,Taylor subscribed to the channel.
,,117478,031,1,2024-03-05_22h12.22.997,Memory and Syntax,2023.2.3,Win32,58.47953216,,,,,,,,,,,,,,,,,,,,,,,,,,,,,,,,,,,,,,,,,,506.5599,555.4098,1.7,48.8371,0,10,10,10,1,1,11,control,10B,There might fossils seem to be several miles underground.
,,117478,031,1,2024-03-05_22h12.22.997,Memory and Syntax,2023.2.3,Win32,58.47953216,,,,,,,,,,,,,,,,,,,,,,,,,,,,,,,,,,,,,,,,,,555.41,558.0267,1.7,2.6056,0,11,11,11,1,1,12,ASV,8B,Esperanza sighed herself at the desk.
,,117478,031,1,2024-03-05_22h12.22.997,Memory and Syntax,2023.2.3,Win32,58.47953216,,,,,,,,,,,,,,,,,,,,,,,,,,,,,,,,,,,,,,,,,,558.0268,560.8268,2,2.7936,0,12,12,12,1,1,13,WOV,9B,Read we five pages each night.
,,117478,031,1,2024-03-05_22h12.22.997,Memory and Syntax,2023.2.3,Win32,58.47953216,,,,,,,,,,,,,,,,,,,,,,,,,,,,,,,,,,,,,,,,,,560.8269,564.56,1.7,3.73,0,13,13,13,1,1,14,WOV,7B,Frightened the eerie sound Seth.
,,117478,031,1,2024-03-05_22h12.22.997,Memory and Syntax,2023.2.3,Win32,58.47953216,,,,,,,,,,,,,,,,,,,,,,,,,,,,,,,,,,,,,,,,,,564.5602,567.9933,6.1,3.4277,0,14,14,14,1,1,15,filler,2A,"Arty is sick, and Mark is too."
,,117478,031,1,2024-03-05_22h12.22.997,Memory and Syntax,2023.2.3,Win32,58.47953216,,,,,,,,,,,,,,,,,,,,,,,,,,,,,,,,,,,,,,,,,,567.9934,571.0266,2,3.0321,0,15,15,15,1,1,16,ASV,9B,The prime minister confessed herself to bribery.
,,117478,031,1,2024-03-05_22h12.22.997,Memory and Syntax,2023.2.3,Win32,58.47953216,,,,,,,,,,,,,,,,,,,,,,,,,,,,,,,,,,,,,,,,,,571.0267,577.1099,3.5,6.0738,0,16,16,16,1,1,17,control,7B,Olivia told Gregory when to exonerate herself.
,,117478,031,1,2024-03-05_22h12.22.997,Memory and Syntax,2023.2.3,Win32,58.47953216,,,,,,,,,,,,,,,,,,,,,,,,,,,,,,,,,,,,,,,,,,577.1101,584.4265,4.1,7.3055,0,17,17,17,1,1,18,control,11B,There are likely students to be in the library.
,,117478,031,1,2024-03-05_22h12.22.997,Memory and Syntax,2023.2.3,Win32,58.47953216,,,,,,,,,,,,,,,,,,,,,,,,,,,,,,,,,,,,,,,,,,584.4268,590.1099,5.6,5.6758,0,18,18,18,1,1,19,filler,5A,I told Mandy who would win the election.
,,117478,031,1,2024-03-05_22h12.22.997,Memory and Syntax,2023.2.3,Win32,58.47953216,,,,,,,,,,,,,,,,,,,,,,,,,,,,,,,,,,,,,,,,,,590.11,592.8765,2.3,2.7589,0,19,19,19,1,1,20,control,9B,We consider there three problems.
,,117478,031,1,2024-03-05_22h12.22.997,Memory and Syntax,2023.2.3,Win32,58.47953216,,,,,,,,,,,,,,,,,,,,,,,,,,,,,,,,,,,,,,,,,,592.8766,595.5599,2.1,2.6699,0,20,20,20,1,1,21,control,8B,She called Victor and yelled at.
,,117478,031,1,2024-03-05_22h12.22.997,Memory and Syntax,2023.2.3,Win32,58.47953216,,,,,,,,,,,,,,,,,,,,,,,,,,,,,,,,,,,,,,,,,,595.56,598.06,4.9,2.4889,0,21,21,21,1,1,22,WO,4A,The bully pushed every student.
,,117478,031,1,2024-03-05_22h12.22.997,Memory and Syntax,2023.2.3,Win32,58.47953216,,,,,,,,,,,,,,,,,,,,,,,,,,,,,,,,,,,,,,,,,,598.0602,607.7099,5.6,9.6453,0,22,22,22,1,1,23,WO,3A,Miguel baked delicious cupcakes.
,,117478,031,1,2024-03-05_22h12.22.997,Memory and Syntax,2023.2.3,Win32,58.47953216,,,,,,,,,,,,,,,,,,,,,,,,,,,,,,,,,,,,,,,,,,607.71,610.1766,5.5,2.4554,0,23,23,23,1,1,24,WO,1A,Abby answered the question.
,,117478,031,1,2024-03-05_22h12.22.997,Memory and Syntax,2023.2.3,Win32,58.47953216,,,,,,,,,,,,,,,,,,,,,,,,,,,,,,,,,,,,,,,,,,610.1767,612.66,6.1,2.4697,0,24,24,24,1,1,25,filler,3A,Brittany attempted to touch the porcupine.
,,117478,031,1,2024-03-05_22h12.22.997,Memory and Syntax,2023.2.3,Win32,58.47953216,,,,,,,,,,,,,,,,,,,,,,,,,,,,,,,,,,,,,,,,,,612.6602,615.9434,4,3.2703,0,25,25,25,1,1,26,AS,3A,Gracie stayed by the window.
,,117478,031,1,2024-03-05_22h12.22.997,Memory and Syntax,2023.2.3,Win32,58.47953216,,,,,,,,,,,,,,,,,,,,,,,,,,,,,,,,,,,,,,,,,,615.9435,618.4267,1.2,2.4811,0,26,26,26,1,1,27,WOV,11B,Wrote she her boyfriend a poem.
,,117478,031,1,2024-03-05_22h12.22.997,Memory and Syntax,2023.2.3,Win32,58.47953216,,,,,,,,,,,,,,,,,,,,,,,,,,,,,,,,,,,,,,,,,,618.4267,620.76,1,2.3197,0,27,27,27,1,1,28,WOV,12B,Watched Lily a movie.
,,117478,031,1,2024-03-05_22h12.22.997,Memory and Syntax,2023.2.3,Win32,58.47953216,,,,,,,,,,,,,,,,,,,,,,,,,,,,,,,,,,,,,,,,,,620.7602,623.1432,5.5,2.3755,0,28,28,28,1,1,29,WO,2A,Jackie won the close race.
,,117478,031,1,2024-03-05_22h12.22.997,Memory and Syntax,2023.2.3,Win32,58.47953216,,,,,,,,,,,,,,,,,,,,,,,,,,,,,,,,,,,,,,,,,,623.1434,625.6101,5.9,2.4535,0,29,29,29,1,1,30,AS,4A,Tomas drank from the water pitcher.
,,117478,031,1,2024-03-05_22h12.22.997,Memory and Syntax,2023.2.3,Win32,58.47953216,,,,,,,,,,,,,,,,,,,,,,,,,,,,,,,,,,,,,,,,,,625.6103,628.3934,1.2,2.7697,0,30,30,30,1,1,31,WOV,10B,Kissed Kareem his boyfriend.
,,117478,031,1,2024-03-05_22h12.22.997,Memory and Syntax,2023.2.3,Win32,58.47953216,,,,,,,,,,,,,,,,,,,,,,,,,,,,,,,,,,,,,,,,,,628.3935,630.6599,5.3,2.2534,0,31,31,31,1,1,32,ASV,10B,The children quieted themselves.
,,117478,031,1,2024-03-05_22h12.22.997,Memory and Syntax,2023.2.3,Win32,58.47953216,,,,,,,,,,,,,,,,,,,,,,,,,,,,,,,,,,,,,,,,,,630.6601,633.11,5.6,2.4367,0,32,32,32,1,1,33,AS,1A,They fidgeted in their chairs.
,,117478,031,1,2024-03-05_22h12.22.997,Memory and Syntax,2023.2.3,Win32,58.47953216,,,,,,,,,,,,,,,,,,,,,,,,,,,,,,,,,,,,,,,,,,633.1102,635.8768,6,2.7529,0,33,33,33,1,1,34,filler,4A,It seems to him that Kim solved the problem.
,,117478,031,1,2024-03-05_22h12.22.997,Memory and Syntax,2023.2.3,Win32,58.47953216,,,,,,,,,,,,,,,,,,,,,,,,,,,,,,,,,,,,,,,,,,635.8769,638.16,6.2,2.2791,0,34,34,34,1,1,35,ASV,12B,The swimmers shaved themselves.