load.started,load.stopped,Sona ID,Participant ID,Session,date,expName,psychopyVersion,OS,frameRate,cvmtInstr.started,cvmtInstr.stopped,cvmtTaskInstr.started,cvmtTaskInstr.stopped,presentDesign.started,presentDesign.stopped,cvmt_key_resp.keys,cvmt_key_resp.corr,cvmtNoResp.started,cvmtNoResp.stopped,cvmt_key_resp2.keys,cvmt_key_resp2.corr,cvmt_key_resp2.rt,cvmt_key_resp2.duration,cvmtSampleFB.started,cvmtSampleFB.stopped,key_resp_15.keys,cvmtSampleFBFinal.started,cvmtSampleFBFinal.stopped,cvmt_final_samp_fb_key_resp.keys,cvmtTrials.thisRepN,cvmtTrials.thisTrialN,cvmtTrials.thisN,cvmtTrials.thisIndex,cvmtTrials.ran,cvmt_design,old_or_new,cvmt_key_resp.rt,cvmt_key_resp.duration,key_resp_15.rt,key_resp_15.duration,cvmt_final_samp_fb_key_resp.rt,cvmt_final_samp_fb_key_resp.duration,cvmtDelay.started,cvmtDelay.stopped,cvmt timer,engAJT_instr.started,engAJT_instr.stopped,start_ajt.keys,start_ajt.rt,start_ajt.duration,engAJT.started,engAJT.stopped,acceptability.response,acceptability.rt,engAJT_trials.thisRepN,engAJT_trials.thisTrialN,engAJT_trials.thisN,engAJT_trials.thisIndex,engAJT_trials.ran,ajt_list,list_position,condition,item,testSent
0.0002,0.2091,117572,043,1,2024-03-05_20h43.06.446,Memory and Syntax,2023.2.3,MacIntel,120.4819277,,,,,,,,,,,,,,,,,,,,,,,,,,,,,,,,,,,,,,,,,,,,,,,,,,,,,,,
,,117572,043,1,2024-03-05_20h43.06.446,Memory and Syntax,2023.2.3,MacIntel,120.4819277,0.2327,111.2418,111.2547,119.5909,119.651,121.5974,,0,121.598,124.8995,n,1,3.2846,,124.9001,124.912,,124.9126,124.9142,,0,0,0,0,1,cvmt/sample/s1.jpg,n,,,,,,,,,,,,,,,,,,,,,,,,,,,,
,,117572,043,1,2024-03-05_20h43.06.446,Memory and Syntax,2023.2.3,MacIntel,120.4819277,,,,,124.9157,126.9142,n,1,126.9146,126.9156,,0,,,126.916,126.9171,,126.9175,126.9184,,0,1,1,1,1,cvmt/sample/s2.jpg,n,1.4125,,,,,,,,,,,,,,,,,,,,,,,,,,,
,,117572,043,1,2024-03-05_20h43.06.446,Memory and Syntax,2023.2.3,MacIntel,120.4819277,,,,,126.9199,128.9144,,0,128.9149,133.5315,n,0,4.6067,,133.5319,140.8473,c,140.8477,140.8486,,0,2,2,2,1,cvmt/sample/s3.jpg,o,,,7.2927,,,,,,,,,,,,,,,,,,,,,,,,,
,,117572,043,1,2024-03-05_20h43.06.446,Memory and Syntax,2023.2.3,MacIntel,120.4819277,,,,,140.8602,142.8555,,0,142.8559,156.3651,n,1,13.4978,,156.3657,156.3783,,156.3787,156.3795,,0,3,3,3,1,cvmt/sample/s4.jpg,n,,,,,,,,,,,,,,,,,,,,,,,,,,,,
,,117572,043,1,2024-03-05_20h43.06.446,Memory and Syntax,2023.2.3,MacIntel,120.4819277,,,,,156.381,158.3813,,0,158.3817,159.2981,n,1,0.9043,,159.2986,159.2996,,159.3,159.3009,,0,4,4,4,1,cvmt/sample/s5.jpg,n,,,,,,,,,,,,,,,,,,,,,,,,,,,,
,,117572,043,1,2024-03-05_20h43.06.446,Memory and Syntax,2023.2.3,MacIntel,120.4819277,,,,,159.3023,161.297,,0,161.2975,161.7306,n,1,0.4239,,161.7311,161.7321,,161.7326,161.7335,,0,5,5,5,1,cvmt/sample/s6.jpg,n,,,,,,,,,,,,,,,,,,,,,,,,,,,,
,,117572,043,1,2024-03-05_20h43.06.446,Memory and Syntax,2023.2.3,MacIntel,120.4819277,,,,,161.7348,163.7315,,0,163.732,163.956,o,1,0.2183,,163.9565,163.9575,,163.958,163.9588,,0,6,6,6,1,cvmt/sample/s7.jpg,o,,,,,,,,,,,,,,,,,,,,,,,,,,,,
,,117572,043,1,2024-03-05_20h43.06.446,Memory and Syntax,2023.2.3,MacIntel,120.4819277,,,,,163.9603,165.9563,,0,165.9569,166.2147,n,1,0.2478,,166.2152,166.2163,,166.2167,166.2175,,0,7,7,7,1,cvmt/sample/s8.jpg,n,,,,,,,,,,,,,,,,,,,,,,,,,,,,
,,117572,043,1,2024-03-05_20h43.06.446,Memory and Syntax,2023.2.3,MacIntel,120.4819277,,,,,166.219,168.2145,,0,168.2151,168.706,n,1,0.4813,,168.7064,168.7173,,168.7178,168.7186,,0,8,8,8,1,cvmt/sample/s9.jpg,n,,,,,,,,,,,,,,,,,,,,,,,,,,,,
,,117572,043,1,2024-03-05_20h43.06.446,Memory and Syntax,2023.2.3,MacIntel,120.4819277,,,,,168.72,170.7226,,0,170.7231,171.214,n,1,0.4811,,171.2144,171.2155,,171.216,171.2169,,0,9,9,9,1,cvmt/sample/s10.jpg,n,,,,,,,,,,,,,,,,,,,,,,,,,,,,
,,117572,043,1,2024-03-05_20h43.06.446,Memory and Syntax,2023.2.3,MacIntel,120.4819277,,,,,171.2183,173.2146,,0,173.215,173.4893,o,1,0.2675,,173.4898,173.4907,,173.4912,179.4581,c,0,10,10,10,1,cvmt/sample/s11.jpg,o,,,,,5.9384,,,,,,,,,,,,,,,,,,,,,,,
,,117572,043,1,2024-03-05_20h43.06.446,Memory and Syntax,2023.2.3,MacIntel,120.4819277,,,179.4608,185.1558,185.1748,187.164,,0,187.164,187.9807,n,1,0.8054,,187.9807,187.981,,187.981,187.982,,0,0,0,0,1,cvmt/test_items/t1.jpeg,n,,,,,,,,,,,,,,,,,,,,,,,,,,,,
,,117572,043,1,2024-03-05_20h43.06.446,Memory and Syntax,2023.2.3,MacIntel,120.4819277,,,,,187.9822,189.98,,0,189.9801,190.3383,o,0,0.3511,,190.3383,190.3385,,190.3385,190.3386,,0,1,1,1,1,cvmt/test_items/t2.jpeg,n,,,,,,,,,,,,,,,,,,,,,,,,,,,,
,,117572,043,1,2024-03-05_20h43.06.446,Memory and Syntax,2023.2.3,MacIntel,120.4819277,,,,,190.3387,192.3392,,0,192.3392,192.6384,o,1,0.291,,192.6384,192.6484,,192.6484,192.6485,,0,2,2,2,1,cvmt/test_items/t3.jpeg,o,,,,,,,,,,,,,,,,,,,,,,,,,,,,
,,117572,043,1,2024-03-05_20h43.06.446,Memory and Syntax,2023.2.3,MacIntel,120.4819277,,,,,192.6487,194.6467,,0,194.6467,194.9887,o,1,0.3316,,194.9888,194.989,,194.9891,194.9891,,0,3,3,3,1,cvmt/test_items/t4.jpeg,o,,,,,,,,,,,,,,,,,,,,,,,,,,,,
,,117572,043,1,2024-03-05_20h43.06.446,Memory and Syntax,2023.2.3,MacIntel,120.4819277,,,,,194.9892,196.9892,,0,196.9892,197.3141,o,1,0.3185,,197.3141,197.3143,,197.3143,197.3144,,0,4,4,4,1,cvmt/test_items/t5.jpeg,o,,,,,,,,,,,,,,,,,,,,,,,,,,,,
,,117572,043,1,2024-03-05_20h43.06.446,Memory and Syntax,2023.2.3,MacIntel,120.4819277,,,,,197.3145,199.3135,,0,199.3135,199.6558,o,1,0.3328,,199.6558,199.6561,,199.6562,199.6562,,0,5,5,5,1,cvmt/test_items/t6.jpeg,o,,,,,,,,,,,,,,,,,,,,,,,,,,,,
,,117572,043,1,2024-03-05_20h43.06.446,Memory and Syntax,2023.2.3,MacIntel,120.4819277,,,,,199.6564,201.6554,,0,201.6555,201.9716,o,1,0.3082,,201.9717,201.9719,,201.9719,201.9719,,0,6,6,6,1,cvmt/test_items/t7.jpeg,o,,,,,,,,,,,,,,,,,,,,,,,,,,,,
,,117572,043,1,2024-03-05_20h43.06.446,Memory and Syntax,2023.2.3,MacIntel,120.4819277,,,,,201.9721,203.9715,,0,203.9715,204.4635,n,0,0.4838,,204.4635,204.4734,,204.4734,204.4735,,0,7,7,7,1,cvmt/test_items/t8.jpeg,o,,,,,,,,,,,,,,,,,,,,,,,,,,,,
,,117572,043,1,2024-03-05_20h43.06.446,Memory and Syntax,2023.2.3,MacIntel,120.4819277,,,,,204.4736,206.4715,,0,206.4715,206.78,n,0,0.3007,,206.78,206.7801,,206.7802,206.7803,,0,8,8,8,1,cvmt/test_items/t9.jpeg,o,,,,,,,,,,,,,,,,,,,,,,,,,,,,
,,117572,043,1,2024-03-05_20h43.06.446,Memory and Syntax,2023.2.3,MacIntel,120.4819277,,,,,206.7804,208.7799,,0,208.7799,209.439,o,1,0.6518,,209.439,209.4393,,209.4393,209.4394,,0,9,9,9,1,cvmt/test_items/t10.jpeg,o,,,,,,,,,,,,,,,,,,,,,,,,,,,,
,,117572,043,1,2024-03-05_20h43.06.446,Memory and Syntax,2023.2.3,MacIntel,120.4819277,,,,,209.4394,211.4382,,0,211.4383,211.73,n,1,0.2838,,211.7301,211.7302,,211.7302,211.7303,,0,10,10,10,1,cvmt/test_items/t11.jpeg,n,,,,,,,,,,,,,,,,,,,,,,,,,,,,
,,117572,043,1,2024-03-05_20h43.06.446,Memory and Syntax,2023.2.3,MacIntel,120.4819277,,,,,211.7305,213.7301,,0,213.7301,214.1308,o,1,0.3923,,214.1309,214.1311,,214.1311,214.1311,,0,11,11,11,1,cvmt/test_items/t12.jpeg,o,,,,,,,,,,,,,,,,,,,,,,,,,,,,
,,117572,043,1,2024-03-05_20h43.06.446,Memory and Syntax,2023.2.3,MacIntel,120.4819277,,,,,214.1312,216.1302,,0,216.1302,220.7215,n,0,4.5857,,220.7215,220.7318,,220.7318,220.7318,,0,12,12,12,1,cvmt/test_items/t13.jpeg,o,,,,,,,,,,,,,,,,,,,,,,,,,,,,
,,117572,043,1,2024-03-05_20h43.06.446,Memory and Syntax,2023.2.3,MacIntel,120.4819277,,,,,220.732,222.7303,,0,222.7303,223.3054,n,0,0.5656,,223.3054,223.3057,,223.3057,223.3057,,0,13,13,13,1,cvmt/test_items/t14.jpeg,o,,,,,,,,,,,,,,,,,,,,,,,,,,,,
,,117572,043,1,2024-03-05_20h43.06.446,Memory and Syntax,2023.2.3,MacIntel,120.4819277,,,,,223.3059,225.3055,,0,225.3055,225.697,n,0,0.3833,,225.697,225.6973,,225.6973,225.6973,,0,14,14,14,1,cvmt/test_items/t15.jpeg,o,,,,,,,,,,,,,,,,,,,,,,,,,,,,
,,117572,043,1,2024-03-05_20h43.06.446,Memory and Syntax,2023.2.3,MacIntel,120.4819277,,,,,225.6975,227.6969,,0,227.6969,228.0888,o,1,0.3846,,228.0889,228.0891,,228.0891,228.0892,,0,15,15,15,1,cvmt/test_items/t16.jpeg,o,,,,,,,,,,,,,,,,,,,,,,,,,,,,
,,117572,043,1,2024-03-05_20h43.06.446,Memory and Syntax,2023.2.3,MacIntel,120.4819277,,,,,228.0893,230.0889,,0,230.0889,230.4465,n,0,0.3491,,230.4465,230.4467,,230.4467,230.4468,,0,16,16,16,1,cvmt/test_items/t17.jpeg,o,,,,,,,,,,,,,,,,,,,,,,,,,,,,
,,117572,043,1,2024-03-05_20h43.06.446,Memory and Syntax,2023.2.3,MacIntel,120.4819277,,,,,230.447,232.4466,,0,232.4466,232.7298,n,0,0.2769,,232.7298,232.74,,232.74,232.7401,,0,17,17,17,1,cvmt/test_items/t18.jpeg,o,,,,,,,,,,,,,,,,,,,,,,,,,,,,
,,117572,043,1,2024-03-05_20h43.06.446,Memory and Syntax,2023.2.3,MacIntel,120.4819277,,,,,232.7402,234.7392,,0,234.7393,235.0134,n,1,0.2626,,235.0134,235.0136,,235.0136,235.0136,,0,18,18,18,1,cvmt/test_items/t19.jpeg,n,,,,,,,,,,,,,,,,,,,,,,,,,,,,
,,117572,043,1,2024-03-05_20h43.06.446,Memory and Syntax,2023.2.3,MacIntel,120.4819277,,,,,235.0138,237.014,,0,237.014,237.238,n,0,0.2168,,237.2381,237.2384,,237.2384,237.2384,,0,19,19,19,1,cvmt/test_items/t20.jpeg,o,,,,,,,,,,,,,,,,,,,,,,,,,,,,
,,117572,043,1,2024-03-05_20h43.06.446,Memory and Syntax,2023.2.3,MacIntel,120.4819277,,,,,237.2386,239.2383,n,0,239.2383,239.2385,,0,,,239.2385,239.2387,,239.2387,239.2387,,0,20,20,20,1,cvmt/test_items/t21.jpeg,o,1.8375,,,,,,,,,,,,,,,,,,,,,,,,,,,
,,117572,043,1,2024-03-05_20h43.06.446,Memory and Syntax,2023.2.3,MacIntel,120.4819277,,,,,239.2389,241.2381,n,0,241.2381,241.2382,,0,,,241.2382,241.2385,,241.2385,241.2385,,0,21,21,21,1,cvmt/test_items/t22.jpeg,o,0.2879,,,,,,,,,,,,,,,,,,,,,,,,,,,
,,117572,043,1,2024-03-05_20h43.06.446,Memory and Syntax,2023.2.3,MacIntel,120.4819277,,,,,241.2386,243.238,,0,243.2381,245.6047,n,1,2.362,,245.6047,245.6146,,245.6146,245.6147,,0,22,22,22,1,cvmt/test_items/t23.jpeg,n,,,,,,,,,,,,,,,,,,,,,,,,,,,,
,,117572,043,1,2024-03-05_20h43.06.446,Memory and Syntax,2023.2.3,MacIntel,120.4819277,,,,,245.6149,247.6135,,0,247.6136,252.9474,o,0,5.3228,,252.9475,252.958,,252.9581,252.9581,,0,23,23,23,1,cvmt/test_items/t24.jpeg,n,,,,,,,,,,,,,,,,,,,,,,,,,,,,
,,117572,043,1,2024-03-05_20h43.06.446,Memory and Syntax,2023.2.3,MacIntel,120.4819277,,,,,252.9582,254.9558,o,1,254.9558,254.958,,0,,,254.958,254.9582,,254.9582,254.9582,,0,24,24,24,1,cvmt/test_items/t25.jpeg,o,1.938,,,,,,,,,,,,,,,,,,,,,,,,,,,
,,117572,043,1,2024-03-05_20h43.06.446,Memory and Syntax,2023.2.3,MacIntel,120.4819277,,,,,254.9583,256.9553,o,0,256.9553,256.9554,,0,,,256.9554,256.9556,,256.9556,256.9556,,0,25,25,25,1,cvmt/test_items/t26.jpeg,n,1.6912,,,,,,,,,,,,,,,,,,,,,,,,,,,
,,117572,043,1,2024-03-05_20h43.06.446,Memory and Syntax,2023.2.3,MacIntel,120.4819277,,,,,256.9557,258.9553,o,1,258.9553,258.9555,,0,,,258.9555,258.9558,,258.9558,258.9558,,0,26,26,26,1,cvmt/test_items/t27.jpeg,o,1.5588,,,,,,,,,,,,,,,,,,,,,,,,,,,
,,117572,043,1,2024-03-05_20h43.06.446,Memory and Syntax,2023.2.3,MacIntel,120.4819277,,,,,258.956,260.9552,n,1,260.9552,260.9554,,0,,,260.9554,260.9556,,260.9557,260.9557,,0,27,27,27,1,cvmt/test_items/t28.jpeg,n,1.0813,,,,,,,,,,,,,,,,,,,,,,,,,,,
,,117572,043,1,2024-03-05_20h43.06.446,Memory and Syntax,2023.2.3,MacIntel,120.4819277,,,,,260.9559,262.9551,n,1,262.9552,262.9553,,0,,,262.9553,262.9555,,262.9555,262.9555,,0,28,28,28,1,cvmt/test_items/t29.jpeg,n,0.7913,,,,,,,,,,,,,,,,,,,,,,,,,,,
,,117572,043,1,2024-03-05_20h43.06.446,Memory and Syntax,2023.2.3,MacIntel,120.4819277,,,,,262.9556,264.9551,n,0,264.9552,264.9553,,0,,,264.9553,264.9555,,264.9555,264.9555,,0,29,29,29,1,cvmt/test_items/t30.jpeg,o,1.098,,,,,,,,,,,,,,,,,,,,,,,,,,,
,,117572,043,1,2024-03-05_20h43.06.446,Memory and Syntax,2023.2.3,MacIntel,120.4819277,,,,,264.9557,266.9555,o,1,266.9555,266.9556,,0,,,266.9556,266.9559,,266.9559,266.956,,0,30,30,30,1,cvmt/test_items/t31.jpeg,o,1.3423,,,,,,,,,,,,,,,,,,,,,,,,,,,
,,117572,043,1,2024-03-05_20h43.06.446,Memory and Syntax,2023.2.3,MacIntel,120.4819277,,,,,266.9561,268.9555,n,1,268.9555,268.9556,,0,,,268.9556,268.9559,,268.9559,268.9559,,0,31,31,31,1,cvmt/test_items/t32.jpeg,n,1.15,,,,,,,,,,,,,,,,,,,,,,,,,,,
,,117572,043,1,2024-03-05_20h43.06.446,Memory and Syntax,2023.2.3,MacIntel,120.4819277,,,,,268.9561,270.9552,n,1,270.9553,270.9554,,0,,,270.9554,270.9557,,270.9557,270.9558,,0,32,32,32,1,cvmt/test_items/t33.jpeg,n,0.7249,,,,,,,,,,,,,,,,,,,,,,,,,,,
,,117572,043,1,2024-03-05_20h43.06.446,Memory and Syntax,2023.2.3,MacIntel,120.4819277,,,,,270.956,272.9545,n,0,272.9545,272.9547,,0,,,272.9547,272.9549,,272.9549,272.9549,,0,33,33,33,1,cvmt/test_items/t34.jpeg,o,0.8317,,,,,,,,,,,,,,,,,,,,,,,,,,,
,,117572,043,1,2024-03-05_20h43.06.446,Memory and Syntax,2023.2.3,MacIntel,120.4819277,,,,,272.9551,274.9554,n,1,274.9555,274.9556,,0,,,274.9557,274.9559,,274.9559,274.9559,,0,34,34,34,1,cvmt/test_items/t35.jpeg,n,0.645,,,,,,,,,,,,,,,,,,,,,,,,,,,
,,117572,043,1,2024-03-05_20h43.06.446,Memory and Syntax,2023.2.3,MacIntel,120.4819277,,,,,274.9561,276.9551,o,1,276.9551,276.9553,,0,,,276.9553,276.9556,,276.9556,276.9557,,0,35,35,35,1,cvmt/test_items/t36.jpeg,o,0.9155,,,,,,,,,,,,,,,,,,,,,,,,,,,
,,117572,043,1,2024-03-05_20h43.06.446,Memory and Syntax,2023.2.3,MacIntel,120.4819277,,,,,276.9558,278.955,o,0,278.955,278.9551,,0,,,278.9551,278.9553,,278.9553,278.9554,,0,36,36,36,1,cvmt/test_items/t37.jpeg,n,0.9103,,,,,,,,,,,,,,,,,,,,,,,,,,,
,,117572,043,1,2024-03-05_20h43.06.446,Memory and Syntax,2023.2.3,MacIntel,120.4819277,,,,,278.9556,280.9553,o,1,280.9554,280.9555,,0,,,280.9555,280.9557,,280.9558,280.9558,,0,37,37,37,1,cvmt/test_items/t38.jpeg,o,1.3076,,,,,,,,,,,,,,,,,,,,,,,,,,,
,,117572,043,1,2024-03-05_20h43.06.446,Memory and Syntax,2023.2.3,MacIntel,120.4819277,,,,,280.9559,282.9551,n,1,282.9551,282.9552,,0,,,282.9552,282.9555,,282.9555,282.9556,,0,38,38,38,1,cvmt/test_items/t39.jpeg,n,0.7766,,,,,,,,,,,,,,,,,,,,,,,,,,,
,,117572,043,1,2024-03-05_20h43.06.446,Memory and Syntax,2023.2.3,MacIntel,120.4819277,,,,,282.9557,284.955,n,0,284.955,284.9552,,0,,,284.9552,284.9556,,284.9556,284.9556,,0,39,39,39,1,cvmt/test_items/t40.jpeg,o,1.3071,,,,,,,,,,,,,,,,,,,,,,,,,,,
,,117572,043,1,2024-03-05_20h43.06.446,Memory and Syntax,2023.2.3,MacIntel,120.4819277,,,,,284.9558,286.9549,n,1,286.9549,286.9551,,0,,,286.9551,286.9553,,286.9553,286.9554,,0,40,40,40,1,cvmt/test_items/t41.jpeg,n,0.6992,,,,,,,,,,,,,,,,,,,,,,,,,,,
,,117572,043,1,2024-03-05_20h43.06.446,Memory and Syntax,2023.2.3,MacIntel,120.4819277,,,,,286.9555,288.9549,o,1,288.955,288.955,,0,,,288.955,288.9553,,288.9553,288.9553,,0,41,41,41,1,cvmt/test_items/t42.jpeg,o,1.0654,,,,,,,,,,,,,,,,,,,,,,,,,,,
,,117572,043,1,2024-03-05_20h43.06.446,Memory and Syntax,2023.2.3,MacIntel,120.4819277,,,,,288.9554,290.955,o,1,290.955,290.9551,,0,,,290.9551,290.9553,,290.9554,290.9554,,0,42,42,42,1,cvmt/test_items/t43.jpeg,o,1.2446,,,,,,,,,,,,,,,,,,,,,,,,,,,
,,117572,043,1,2024-03-05_20h43.06.446,Memory and Syntax,2023.2.3,MacIntel,120.4819277,,,,,290.9555,292.9548,n,1,292.9548,292.955,,0,,,292.955,292.9552,,292.9552,292.9553,,0,43,43,43,1,cvmt/test_items/t44.jpeg,n,1.2183,,,,,,,,,,,,,,,,,,,,,,,,,,,
,,117572,043,1,2024-03-05_20h43.06.446,Memory and Syntax,2023.2.3,MacIntel,120.4819277,,,,,292.9554,294.955,n,0,294.955,294.9552,,0,,,294.9552,294.9554,,294.9554,294.9554,,0,44,44,44,1,cvmt/test_items/t45.jpeg,o,1.3167,,,,,,,,,,,,,,,,,,,,,,,,,,,
,,117572,043,1,2024-03-05_20h43.06.446,Memory and Syntax,2023.2.3,MacIntel,120.4819277,,,,,294.9555,296.9548,o,1,296.9549,296.9549,,0,,,296.955,296.9552,,296.9552,296.9552,,0,45,45,45,1,cvmt/test_items/t46.jpeg,o,1.1094,,,,,,,,,,,,,,,,,,,,,,,,,,,
,,117572,043,1,2024-03-05_20h43.06.446,Memory and Syntax,2023.2.3,MacIntel,120.4819277,,,,,296.9554,298.9549,n,0,298.9549,298.9551,,0,,,298.9551,298.9553,,298.9553,298.9554,,0,46,46,46,1,cvmt/test_items/t47.jpeg,o,1.2016,,,,,,,,,,,,,,,,,,,,,,,,,,,
,,117572,043,1,2024-03-05_20h43.06.446,Memory and Syntax,2023.2.3,MacIntel,120.4819277,,,,,298.9555,300.9548,n,1,300.9548,300.9549,,0,,,300.9549,300.9552,,300.9552,300.9552,,0,47,47,47,1,cvmt/test_items/t48.jpeg,n,1.3498,,,,,,,,,,,,,,,,,,,,,,,,,,,
,,117572,043,1,2024-03-05_20h43.06.446,Memory and Syntax,2023.2.3,MacIntel,120.4819277,,,,,300.9554,302.9548,o,1,302.9548,302.955,,0,,,302.955,302.9552,,302.9552,302.9553,,0,48,48,48,1,cvmt/test_items/t49.jpeg,o,0.8953,,,,,,,,,,,,,,,,,,,,,,,,,,,
,,117572,043,1,2024-03-05_20h43.06.446,Memory and Syntax,2023.2.3,MacIntel,120.4819277,,,,,302.9555,304.9548,n,0,304.9549,304.9549,,0,,,304.9549,304.9552,,304.9552,304.9553,,0,49,49,49,1,cvmt/test_items/t50.jpeg,o,1.0676,,,,,,,,,,,,,,,,,,,,,,,,,,,
,,117572,043,1,2024-03-05_20h43.06.446,Memory and Syntax,2023.2.3,MacIntel,120.4819277,,,,,304.9555,306.9547,n,1,306.9548,306.9549,,0,,,306.9549,306.9552,,306.9552,306.9552,,0,50,50,50,1,cvmt/test_items/t51.jpeg,n,0.6674,,,,,,,,,,,,,,,,,,,,,,,,,,,
,,117572,043,1,2024-03-05_20h43.06.446,Memory and Syntax,2023.2.3,MacIntel,120.4819277,,,,,306.9555,308.9548,o,1,308.9548,308.9549,,0,,,308.955,308.9551,,308.9551,308.9551,,0,51,51,51,1,cvmt/test_items/t52.jpeg,o,1.1003,,,,,,,,,,,,,,,,,,,,,,,,,,,
,,117572,043,1,2024-03-05_20h43.06.446,Memory and Syntax,2023.2.3,MacIntel,120.4819277,,,,,308.9553,310.9549,o,1,310.9549,310.9549,,0,,,310.9549,310.9552,,310.9552,310.9552,,0,52,52,52,1,cvmt/test_items/t53.jpeg,o,0.9115,,,,,,,,,,,,,,,,,,,,,,,,,,,
,,117572,043,1,2024-03-05_20h43.06.446,Memory and Syntax,2023.2.3,MacIntel,120.4819277,,,,,310.9555,312.9547,o,1,312.9548,312.9549,,0,,,312.9549,312.9551,,312.9551,312.9551,,0,53,53,53,1,cvmt/test_items/t54.jpeg,o,0.8705,,,,,,,,,,,,,,,,,,,,,,,,,,,
,,117572,043,1,2024-03-05_20h43.06.446,Memory and Syntax,2023.2.3,MacIntel,120.4819277,,,,,312.9553,314.9547,o,1,314.9547,314.9548,,0,,,314.9548,314.955,,314.955,314.9551,,0,54,54,54,1,cvmt/test_items/t55.jpeg,o,0.9924,,,,,,,,,,,,,,,,,,,,,,,,,,,
,,117572,043,1,2024-03-05_20h43.06.446,Memory and Syntax,2023.2.3,MacIntel,120.4819277,,,,,314.9552,316.9547,n,0,316.9547,316.9548,,0,,,316.9548,316.9551,,316.9551,316.9551,,0,55,55,55,1,cvmt/test_items/t56.jpeg,o,0.9804,,,,,,,,,,,,,,,,,,,,,,,,,,,
,,117572,043,1,2024-03-05_20h43.06.446,Memory and Syntax,2023.2.3,MacIntel,120.4819277,,,,,316.9553,318.9546,o,1,318.9546,318.9547,,0,,,318.9547,318.955,,318.955,318.955,,0,56,56,56,1,cvmt/test_items/t57.jpeg,o,1.0296,,,,,,,,,,,,,,,,,,,,,,,,,,,
,,117572,043,1,2024-03-05_20h43.06.446,Memory and Syntax,2023.2.3,MacIntel,120.4819277,,,,,318.9551,320.9546,n,1,320.9547,320.9548,,0,,,320.9548,320.9549,,320.9549,320.955,,0,57,57,57,1,cvmt/test_items/t58.jpeg,n,1.1952,,,,,,,,,,,,,,,,,,,,,,,,,,,
,,117572,043,1,2024-03-05_20h43.06.446,Memory and Syntax,2023.2.3,MacIntel,120.4819277,,,,,320.9551,322.9546,n,1,322.9547,322.9548,,0,,,322.9548,322.9551,,322.9551,322.9551,,0,58,58,58,1,cvmt/test_items/t59.jpeg,n,1.6947,,,,,,,,,,,,,,,,,,,,,,,,,,,
,,117572,043,1,2024-03-05_20h43.06.446,Memory and Syntax,2023.2.3,MacIntel,120.4819277,,,,,322.9553,324.9547,o,1,324.9547,324.9548,,0,,,324.9549,324.9551,,324.9551,324.9552,,0,59,59,59,1,cvmt/test_items/t60.jpeg,o,1.0277,,,,,,,,,,,,,,,,,,,,,,,,,,,
,,117572,043,1,2024-03-05_20h43.06.446,Memory and Syntax,2023.2.3,MacIntel,120.4819277,,,,,324.9553,326.9544,n,0,326.9545,326.9546,,0,,,326.9546,326.9549,,326.9549,326.9549,,0,60,60,60,1,cvmt/test_items/t61.jpeg,o,1.6205,,,,,,,,,,,,,,,,,,,,,,,,,,,
,,117572,043,1,2024-03-05_20h43.06.446,Memory and Syntax,2023.2.3,MacIntel,120.4819277,,,,,326.955,328.9546,o,1,328.9546,328.9546,,0,,,328.9547,328.9549,,328.9549,328.955,,0,61,61,61,1,cvmt/test_items/t62.jpeg,o,1.0383,,,,,,,,,,,,,,,,,,,,,,,,,,,
,,117572,043,1,2024-03-05_20h43.06.446,Memory and Syntax,2023.2.3,MacIntel,120.4819277,,,,,328.955,330.9546,,0,330.9547,332.7637,n,0,1.7987,,332.7637,332.7739,,332.7739,332.774,,0,62,62,62,1,cvmt/test_items/t63.jpeg,o,,,,,,,,,,,,,,,,,,,,,,,,,,,,
,,117572,043,1,2024-03-05_20h43.06.446,Memory and Syntax,2023.2.3,MacIntel,120.4819277,,,,,332.7742,334.7716,o,1,334.7716,334.7738,,0,,,334.7739,334.7741,,334.7741,334.7741,,0,63,63,63,1,cvmt/test_items/t64.jpeg,o,1.8265,,,,,,,,,,,,,,,,,,,,,,,,,,,
,,117572,043,1,2024-03-05_20h43.06.446,Memory and Syntax,2023.2.3,MacIntel,120.4819277,,,,,334.7743,336.7712,o,1,336.7713,336.7713,,0,,,336.7714,336.7716,,336.7716,336.7716,,0,64,64,64,1,cvmt/test_items/t65.jpeg,o,1.3529,,,,,,,,,,,,,,,,,,,,,,,,,,,
,,117572,043,1,2024-03-05_20h43.06.446,Memory and Syntax,2023.2.3,MacIntel,120.4819277,,,,,336.7718,338.7714,o,1,338.7714,338.7715,,0,,,338.7716,338.7718,,338.7718,338.7718,,0,65,65,65,1,cvmt/test_items/t66.jpeg,o,0.6554,,,,,,,,,,,,,,,,,,,,,,,,,,,
,,117572,043,1,2024-03-05_20h43.06.446,Memory and Syntax,2023.2.3,MacIntel,120.4819277,,,,,338.772,340.7715,o,0,340.7715,340.7716,,0,,,340.7716,340.7718,,340.7718,340.7719,,0,66,66,66,1,cvmt/test_items/t67.jpeg,n,0.8557,,,,,,,,,,,,,,,,,,,,,,,,,,,
,,117572,043,1,2024-03-05_20h43.06.446,Memory and Syntax,2023.2.3,MacIntel,120.4819277,,,,,340.772,342.7712,,0,342.7713,343.5712,o,1,0.7909,,343.5712,343.5715,,343.5715,343.5715,,0,67,67,67,1,cvmt/test_items/t68.jpeg,o,,,,,,,,,,,,,,,,,,,,,,,,,,,,
,,117572,043,1,2024-03-05_20h43.06.446,Memory and Syntax,2023.2.3,MacIntel,120.4819277,,,,,343.5716,345.5712,,0,345.5713,346.1044,n,0,0.5273,,346.1045,346.1047,,346.1047,346.1047,,0,68,68,68,1,cvmt/test_items/t69.jpeg,o,,,,,,,,,,,,,,,,,,,,,,,,,,,,
,,117572,043,1,2024-03-05_20h43.06.446,Memory and Syntax,2023.2.3,MacIntel,120.4819277,,,,,346.1049,348.1047,,0,348.1048,348.1387,o,1,0.0291,,348.1387,348.1389,,348.1389,348.139,,0,69,69,69,1,cvmt/test_items/t70.jpeg,o,,,,,,,,,,,,,,,,,,,,,,,,,,,,
,,117572,043,1,2024-03-05_20h43.06.446,Memory and Syntax,2023.2.3,MacIntel,120.4819277,,,,,348.1391,350.1386,o,0,350.1386,350.1387,,0,,,350.1387,350.1389,,350.1389,350.139,,0,70,70,70,1,cvmt/test_items/t71.jpeg,n,0.9338,,,,,,,,,,,,,,,,,,,,,,,,,,,
,,117572,043,1,2024-03-05_20h43.06.446,Memory and Syntax,2023.2.3,MacIntel,120.4819277,,,,,350.1391,352.1385,o,1,352.1385,352.1386,,0,,,352.1386,352.1388,,352.1388,352.1389,,0,71,71,71,1,cvmt/test_items/t72.jpeg,o,0.8352,,,,,,,,,,,,,,,,,,,,,,,,,,,
,,117572,043,1,2024-03-05_20h43.06.446,Memory and Syntax,2023.2.3,MacIntel,120.4819277,,,,,352.139,354.1385,o,1,354.1385,354.1385,,0,,,354.1386,354.1388,,354.1388,354.1389,,0,72,72,72,1,cvmt/test_items/t73.jpeg,o,0.97,,,,,,,,,,,,,,,,,,,,,,,,,,,
,,117572,043,1,2024-03-05_20h43.06.446,Memory and Syntax,2023.2.3,MacIntel,120.4819277,,,,,354.1389,356.1385,n,0,356.1386,356.1386,,0,,,356.1386,356.1388,,356.1388,356.1388,,0,73,73,73,1,cvmt/test_items/t74.jpeg,o,1.0372,,,,,,,,,,,,,,,,,,,,,,,,,,,
,,117572,043,1,2024-03-05_20h43.06.446,Memory and Syntax,2023.2.3,MacIntel,120.4819277,,,,,356.139,358.1386,n,0,358.1386,358.1387,,0,,,358.1387,358.1389,,358.1389,358.1389,,0,74,74,74,1,cvmt/test_items/t75.jpeg,o,1.4371,,,,,,,,,,,,,,,,,,,,,,,,,,,
,,117572,043,1,2024-03-05_20h43.06.446,Memory and Syntax,2023.2.3,MacIntel,120.4819277,,,,,358.1391,360.1385,o,1,360.1385,360.1386,,0,,,360.1387,360.1388,,360.1388,360.1389,,0,75,75,75,1,cvmt/test_items/t76.jpeg,o,0.9684,,,,,,,,,,,,,,,,,,,,,,,,,,,
,,117572,043,1,2024-03-05_20h43.06.446,Memory and Syntax,2023.2.3,MacIntel,120.4819277,,,,,360.139,362.138,n,0,362.1381,362.1382,,0,,,362.1382,362.1384,,362.1384,362.1385,,0,76,76,76,1,cvmt/test_items/t77.jpeg,o,1.0607,,,,,,,,,,,,,,,,,,,,,,,,,,,
,,117572,043,1,2024-03-05_20h43.06.446,Memory and Syntax,2023.2.3,MacIntel,120.4819277,,,,,362.1387,364.1382,o,1,364.1383,364.1383,,0,,,364.1383,364.1386,,364.1386,364.1386,,0,77,77,77,1,cvmt/test_items/t78.jpeg,o,0.7706,,,,,,,,,,,,,,,,,,,,,,,,,,,
,,117572,043,1,2024-03-05_20h43.06.446,Memory and Syntax,2023.2.3,MacIntel,120.4819277,,,,,364.1388,366.1325,n,0,366.1325,366.1326,,0,,,366.1326,366.1328,,366.1328,366.1329,,0,78,78,78,1,cvmt/test_items/t79.jpeg,o,0.701,,,,,,,,,,,,,,,,,,,,,,,,,,,
,,117572,043,1,2024-03-05_20h43.06.446,Memory and Syntax,2023.2.3,MacIntel,120.4819277,,,,,366.133,368.1302,n,1,368.1302,368.1303,,0,,,368.1304,368.1306,,368.1307,368.1307,,0,79,79,79,1,cvmt/test_items/t80.jpeg,n,1.4585,,,,,,,,,,,,,,,,,,,,,,,,,,,
,,117572,043,1,2024-03-05_20h43.06.446,Memory and Syntax,2023.2.3,MacIntel,120.4819277,,,,,368.1309,370.1303,n,0,370.1303,370.1305,,0,,,370.1305,370.1307,,370.1308,370.1308,,0,80,80,80,1,cvmt/test_items/t81.jpeg,o,1.2347,,,,,,,,,,,,,,,,,,,,,,,,,,,
,,117572,043,1,2024-03-05_20h43.06.446,Memory and Syntax,2023.2.3,MacIntel,120.4819277,,,,,370.131,372.1302,o,1,372.1303,372.1305,,0,,,372.1306,372.1308,,372.1308,372.1309,,0,81,81,81,1,cvmt/test_items/t82.jpeg,o,0.8743,,,,,,,,,,,,,,,,,,,,,,,,,,,
,,117572,043,1,2024-03-05_20h43.06.446,Memory and Syntax,2023.2.3,MacIntel,120.4819277,,,,,372.1311,374.1302,n,0,374.1302,374.1303,,0,,,374.1303,374.1306,,374.1306,374.1306,,0,82,82,82,1,cvmt/test_items/t83.jpeg,o,1.103,,,,,,,,,,,,,,,,,,,,,,,,,,,
,,117572,043,1,2024-03-05_20h43.06.446,Memory and Syntax,2023.2.3,MacIntel,120.4819277,,,,,374.1308,376.1305,o,1,376.1305,376.1307,,0,,,376.1307,376.131,,376.131,376.131,,0,83,83,83,1,cvmt/test_items/t84.jpeg,o,1.0899,,,,,,,,,,,,,,,,,,,,,,,,,,,
,,117572,043,1,2024-03-05_20h43.06.446,Memory and Syntax,2023.2.3,MacIntel,120.4819277,,,,,376.1312,378.1305,n,0,378.1306,378.1308,,0,,,378.1308,378.131,,378.1311,378.1311,,0,84,84,84,1,cvmt/test_items/t85.jpeg,o,0.8155,,,,,,,,,,,,,,,,,,,,,,,,,,,
,,117572,043,1,2024-03-05_20h43.06.446,Memory and Syntax,2023.2.3,MacIntel,120.4819277,,,,,378.1314,380.13,o,1,380.1301,380.1301,,0,,,380.1301,380.1304,,380.1304,380.1304,,0,85,85,85,1,cvmt/test_items/t86.jpeg,o,0.7743,,,,,,,,,,,,,,,,,,,,,,,,,,,
,,117572,043,1,2024-03-05_20h43.06.446,Memory and Syntax,2023.2.3,MacIntel,120.4819277,,,,,380.1306,382.1303,n,0,382.1303,382.1304,,0,,,382.1304,382.1307,,382.1307,382.1307,,0,86,86,86,1,cvmt/test_items/t87.jpeg,o,0.8179,,,,,,,,,,,,,,,,,,,,,,,,,,,
,,117572,043,1,2024-03-05_20h43.06.446,Memory and Syntax,2023.2.3,MacIntel,120.4819277,,,,,382.1308,384.1293,o,0,384.1293,384.1294,,0,,,384.1295,384.1297,,384.1297,384.1298,,0,87,87,87,1,cvmt/test_items/t88.jpeg,n,0.696,,,,,,,,,,,,,,,,,,,,,,,,,,,
,,117572,043,1,2024-03-05_20h43.06.446,Memory and Syntax,2023.2.3,MacIntel,120.4819277,,,,,384.1299,386.1293,o,0,386.1294,386.1295,,0,,,386.1295,386.1296,,386.1297,386.1297,,0,88,88,88,1,cvmt/test_items/t89.jpeg,n,1.843,,,,,,,,,,,,,,,,,,,,,,,,,,,
,,117572,043,1,2024-03-05_20h43.06.446,Memory and Syntax,2023.2.3,MacIntel,120.4819277,,,,,386.1299,388.1301,o,1,388.1301,388.1303,,0,,,388.1303,388.1304,,388.1305,388.1305,,0,89,89,89,1,cvmt/test_items/t90.jpeg,o,1.0278,,,,,,,,,,,,,,,,,,,,,,,,,,,
,,117572,043,1,2024-03-05_20h43.06.446,Memory and Syntax,2023.2.3,MacIntel,120.4819277,,,,,388.1307,390.1293,n,0,390.1293,390.1295,,0,,,390.1295,390.1298,,390.1298,390.1298,,0,90,90,90,1,cvmt/test_items/t91.jpeg,o,1.6777,,,,,,,,,,,,,,,,,,,,,,,,,,,
,,117572,043,1,2024-03-05_20h43.06.446,Memory and Syntax,2023.2.3,MacIntel,120.4819277,,,,,390.13,392.1303,n,0,392.1303,392.1304,,0,,,392.1304,392.1307,,392.1307,392.1308,,0,91,91,91,1,cvmt/test_items/t92.jpeg,o,1.4987,,,,,,,,,,,,,,,,,,,,,,,,,,,
,,117572,043,1,2024-03-05_20h43.06.446,Memory and Syntax,2023.2.3,MacIntel,120.4819277,,,,,392.1309,394.1302,o,1,394.1302,394.1304,,0,,,394.1304,394.1305,,394.1305,394.1306,,0,92,92,92,1,cvmt/test_items/t93.jpeg,o,1.1166,,,,,,,,,,,,,,,,,,,,,,,,,,,
,,117572,043,1,2024-03-05_20h43.06.446,Memory and Syntax,2023.2.3,MacIntel,120.4819277,,,,,394.1307,396.1303,n,0,396.1303,396.1304,,0,,,396.1304,396.1307,,396.1308,396.1308,,0,93,93,93,1,cvmt/test_items/t94.jpeg,o,1.3203,,,,,,,,,,,,,,,,,,,,,,,,,,,
,,117572,043,1,2024-03-05_20h43.06.446,Memory and Syntax,2023.2.3,MacIntel,120.4819277,,,,,396.1309,398.1302,n,0,398.1302,398.1303,,0,,,398.1304,398.1306,,398.1306,398.1306,,0,94,94,94,1,cvmt/test_items/t95.jpeg,o,1.8863,,,,,,,,,,,,,,,,,,,,,,,,,,,
,,117572,043,1,2024-03-05_20h43.06.446,Memory and Syntax,2023.2.3,MacIntel,120.4819277,,,,,398.1308,400.1302,o,1,400.1302,400.1303,,0,,,400.1303,400.1306,,400.1306,400.1306,,0,95,95,95,1,cvmt/test_items/t96.jpeg,o,1.3071,,,,,,,,,,,,,,,,,,,,,,,,,,,
,,117572,043,1,2024-03-05_20h43.06.446,Memory and Syntax,2023.2.3,MacIntel,120.4819277,,,,,400.1308,402.1301,o,1,402.1303,402.1303,,0,,,402.1304,402.1306,,402.1306,402.1307,,0,96,96,96,1,cvmt/test_items/t97.jpeg,o,0.9492,,,,,,,,,,,,,,,,,,,,,,,,,,,
,,117572,043,1,2024-03-05_20h43.06.446,Memory and Syntax,2023.2.3,MacIntel,120.4819277,,,,,402.1308,404.1303,n,1,404.1304,404.1305,,0,,,404.1305,404.1307,,404.1307,404.1308,,0,97,97,97,1,cvmt/test_items/t98.jpeg,n,0.7268,,,,,,,,,,,,,,,,,,,,,,,,,,,
,,117572,043,1,2024-03-05_20h43.06.446,Memory and Syntax,2023.2.3,MacIntel,120.4819277,,,,,404.131,406.1302,o,1,406.1302,406.1304,,0,,,406.1304,406.1306,,406.1306,406.1307,,0,98,98,98,1,cvmt/test_items/t99.jpeg,o,1.1343,,,,,,,,,,,,,,,,,,,,,,,,,,,
,,117572,043,1,2024-03-05_20h43.06.446,Memory and Syntax,2023.2.3,MacIntel,120.4819277,,,,,406.1309,408.1301,o,1,408.1301,408.1303,,0,,,408.1303,408.1305,,408.1306,408.1306,,0,99,99,99,1,cvmt/test_items/t100.jpeg,o,0.6986,,,,,,,,,,,,,,,,,,,,,,,,,,,
,,117572,043,1,2024-03-05_20h43.06.446,Memory and Syntax,2023.2.3,MacIntel,120.4819277,,,,,408.1308,410.1299,n,0,410.1299,410.13,,0,,,410.1301,410.1303,,410.1303,410.1304,,0,100,100,100,1,cvmt/test_items/t101.jpeg,o,0.9108,,,,,,,,,,,,,,,,,,,,,,,,,,,
,,117572,043,1,2024-03-05_20h43.06.446,Memory and Syntax,2023.2.3,MacIntel,120.4819277,,,,,410.1305,412.1303,o,1,412.1303,412.1304,,0,,,412.1304,412.1305,,412.1305,412.1307,,0,101,101,101,1,cvmt/test_items/t102.jpeg,o,0.8682,,,,,,,,,,,,,,,,,,,,,,,,,,,
,,117572,043,1,2024-03-05_20h43.06.446,Memory and Syntax,2023.2.3,MacIntel,120.4819277,,,,,412.1308,414.1302,n,0,414.1303,414.1303,,0,,,414.1303,414.1306,,414.1306,414.1307,,0,102,102,102,1,cvmt/test_items/t103.jpeg,o,1.7512,,,,,,,,,,,,,,,,,,,,,,,,,,,
,,117572,043,1,2024-03-05_20h43.06.446,Memory and Syntax,2023.2.3,MacIntel,120.4819277,,,,,414.1309,416.1301,o,1,416.1301,416.1302,,0,,,416.1303,416.1305,,416.1305,416.1306,,0,103,103,103,1,cvmt/test_items/t104.jpeg,o,1.3567,,,,,,,,,,,,,,,,,,,,,,,,,,,
,,117572,043,1,2024-03-05_20h43.06.446,Memory and Syntax,2023.2.3,MacIntel,120.4819277,,,,,416.1307,418.1303,n,1,418.1303,418.1305,,0,,,418.1305,418.1307,,418.1307,418.1308,,0,104,104,104,1,cvmt/test_items/t105.jpeg,n,1.1284,,,,,,,,,,,,,,,,,,,,,,,,,,,
,,117572,043,1,2024-03-05_20h43.06.446,Memory and Syntax,2023.2.3,MacIntel,120.4819277,,,,,418.131,420.1302,o,1,420.1302,420.1303,,0,,,420.1303,420.1306,,420.1306,420.1306,,0,105,105,105,1,cvmt/test_items/t106.jpeg,o,1.028,,,,,,,,,,,,,,,,,,,,,,,,,,,
,,117572,043,1,2024-03-05_20h43.06.446,Memory and Syntax,2023.2.3,MacIntel,120.4819277,,,,,420.1308,422.1291,o,1,422.1292,422.1293,,0,,,422.1293,422.1295,,422.1295,422.1296,,0,106,106,106,1,cvmt/test_items/t107.jpeg,o,0.9447,,,,,,,,,,,,,,,,,,,,,,,,,,,
,,117572,043,1,2024-03-05_20h43.06.446,Memory and Syntax,2023.2.3,MacIntel,120.4819277,,,,,422.1297,424.1295,n,0,424.1296,424.1297,,0,,,424.1297,424.13,,424.13,424.13,,0,107,107,107,1,cvmt/test_items/t108.jpeg,o,1.1929,,,,,,,,,,,,,,,,,,,,,,,,,,,
,,117572,043,1,2024-03-05_20h43.06.446,Memory and Syntax,2023.2.3,MacIntel,120.4819277,,,,,424.1302,426.13,n,0,426.1301,426.1302,,0,,,426.1302,426.1305,,426.1305,426.1305,,0,108,108,108,1,cvmt/test_items/t109.jpeg,o,1.8554,,,,,,,,,,,,,,,,,,,,,,,,,,,
,,117572,043,1,2024-03-05_20h43.06.446,Memory and Syntax,2023.2.3,MacIntel,120.4819277,,,,,426.1307,428.1291,n,0,428.1291,428.1292,,0,,,428.1293,428.1296,,428.1296,428.1297,,0,109,109,109,1,cvmt/test_items/t110.jpeg,o,1.8528,,,,,,,,,,,,,,,,,,,,,,,,,,,
,,117572,043,1,2024-03-05_20h43.06.446,Memory and Syntax,2023.2.3,MacIntel,120.4819277,,,,,428.1298,430.13,,0,430.1301,430.1544,o,1,0.0177,,430.1545,430.1547,,430.1547,430.1547,,0,110,110,110,1,cvmt/test_items/t111.jpeg,o,,,,,,,,,,,,,,,,,,,,,,,,,,,,
,,117572,043,1,2024-03-05_20h43.06.446,Memory and Syntax,2023.2.3,MacIntel,120.4819277,,,,,430.1549,432.1551,o,1,432.1551,432.1552,,0,,,432.1553,432.1555,,432.1555,432.1555,,0,111,111,111,1,cvmt/test_items/t112.jpeg,o,1.8613,,,,,,,,,,,,,,,,,,,,,,,,,,,
,,117572,043,1,2024-03-05_20h43.06.446,Memory and Syntax,2023.2.3,MacIntel,120.4819277,,,,,432.1557,434.1551,o,0,434.1551,434.1552,,0,,,434.1552,434.1555,,434.1555,434.1555,,0,112,112,112,1,cvmt/test_items/t113.jpeg,n,1.6498,,,,,,,,,,,,,,,,,,,,,,,,,,,
,,117572,043,1,2024-03-05_20h43.06.446,Memory and Syntax,2023.2.3,MacIntel,120.4819277,,,,,434.1557,436.1546,n,0,436.1546,436.1547,,0,,,436.1547,436.155,,436.155,436.155,,0,113,113,113,1,cvmt/test_items/t114.jpeg,o,1.3712,,,,,,,,,,,,,,,,,,,,,,,,,,,
,,117572,043,1,2024-03-05_20h43.06.446,Memory and Syntax,2023.2.3,MacIntel,120.4819277,,,,,436.1551,438.155,o,1,438.1551,438.1551,,0,,,438.1551,438.1554,,438.1554,438.1554,,0,114,114,114,1,cvmt/test_items/t115.jpeg,o,1.045,,,,,,,,,,,,,,,,,,,,,,,,,,,
,,117572,043,1,2024-03-05_20h43.06.446,Memory and Syntax,2023.2.3,MacIntel,120.4819277,,,,,438.1556,440.1547,o,1,440.1547,440.1548,,0,,,440.1548,440.155,,440.155,440.1551,,0,115,115,115,1,cvmt/test_items/t116.jpeg,o,0.9154,,,,,,,,,,,,,,,,,,,,,,,,,,,
,,117572,043,1,2024-03-05_20h43.06.446,Memory and Syntax,2023.2.3,MacIntel,120.4819277,,,,,440.1552,442.155,o,1,442.1551,442.1551,,0,,,442.1551,442.1555,,442.1555,442.1555,,0,116,116,116,1,cvmt/test_items/t117.jpeg,o,1.0039,,,,,,,,,,,,,,,,,,,,,,,,,,,
,,117572,043,1,2024-03-05_20h43.06.446,Memory and Syntax,2023.2.3,MacIntel,120.4819277,,,,,442.1557,444.1546,o,1,444.1546,444.1547,,0,,,444.1547,444.1549,,444.1549,444.1549,,0,117,117,117,1,cvmt/test_items/t118.jpeg,o,1.6449,,,,,,,,,,,,,,,,,,,,,,,,,,,
,,117572,043,1,2024-03-05_20h43.06.446,Memory and Syntax,2023.2.3,MacIntel,120.4819277,,,,,444.1551,446.155,o,1,446.155,446.1551,,0,,,446.1551,446.1554,,446.1554,446.1554,,0,118,118,118,1,cvmt/test_items/t119.jpeg,o,1.3816,,,,,,,,,,,,,,,,,,,,,,,,,,,
,,117572,043,1,2024-03-05_20h43.06.446,Memory and Syntax,2023.2.3,MacIntel,120.4819277,,,,,446.1556,448.1544,o,1,448.1544,448.1546,,0,,,448.1546,448.1548,,448.1548,448.1548,,0,119,119,119,1,cvmt/test_items/t120.jpeg,o,0.8207,,,,,,,,,,,,,,,,,,,,,,,,,,,
,,117572,043,1,2024-03-05_20h43.06.446,Memory and Syntax,2023.2.3,MacIntel,120.4819277,,,,,448.1549,450.155,o,1,450.155,450.1551,,0,,,450.1551,450.1554,,450.1554,450.1554,,0,120,120,120,1,cvmt/test_items/t121.jpeg,o,0.8251,,,,,,,,,,,,,,,,,,,,,,,,,,,
,,117572,043,1,2024-03-05_20h43.06.446,Memory and Syntax,2023.2.3,MacIntel,120.4819277,,,,,450.1556,452.1549,o,1,452.155,452.1551,,0,,,452.1552,452.1554,,452.1554,452.1555,,0,121,121,121,1,cvmt/test_items/t122.jpeg,o,1.0352,,,,,,,,,,,,,,,,,,,,,,,,,,,
,,117572,043,1,2024-03-05_20h43.06.446,Memory and Syntax,2023.2.3,MacIntel,120.4819277,,,,,452.1556,454.1549,n,1,454.155,454.1551,,0,,,454.1552,454.1554,,454.1554,454.1554,,0,122,122,122,1,cvmt/test_items/t123.jpeg,n,1.4801,,,,,,,,,,,,,,,,,,,,,,,,,,,
,,117572,043,1,2024-03-05_20h43.06.446,Memory and Syntax,2023.2.3,MacIntel,120.4819277,,,,,454.1556,456.1549,o,1,456.1549,456.155,,0,,,456.155,456.1551,,456.1552,456.1552,,0,123,123,123,1,cvmt/test_items/t124.jpeg,o,1.2036,,,,,,,,,,,,,,,,,,,,,,,,,,,
,,117572,043,1,2024-03-05_20h43.06.446,Memory and Syntax,2023.2.3,MacIntel,120.4819277,,,,,456.1554,458.155,o,1,458.155,458.1551,,0,,,458.1551,458.1554,,458.1554,458.1554,,0,124,124,124,1,cvmt/test_items/t125.jpeg,o,0.8252,,,,,,,,,,,,,,,,,,,,,,,,,,,
,,117572,043,1,2024-03-05_20h43.06.446,Memory and Syntax,2023.2.3,MacIntel,120.4819277,,,,,458.1555,460.155,o,1,460.155,460.1551,,0,,,460.1551,460.1553,,460.1554,460.1554,,0,125,125,125,1,cvmt/test_items/t126.jpeg,o,0.8372,,,,,,,,,,,,,,,,,,,,,,,,,,,
,,117572,043,1,2024-03-05_20h43.06.446,Memory and Syntax,2023.2.3,MacIntel,120.4819277,,,,,460.1556,462.1551,o,1,462.1551,462.1552,,0,,,462.1552,462.1554,,462.1554,462.1554,,0,126,126,126,1,cvmt/test_items/t127.jpeg,o,0.898,,,,,,,,,,,,,,,,,,,,,,,,,,,
,,117572,043,1,2024-03-05_20h43.06.446,Memory and Syntax,2023.2.3,MacIntel,120.4819277,,,,,462.1555,464.1541,o,1,464.1541,464.1542,,0,,,464.1542,464.1544,,464.1544,464.1544,,0,127,127,127,1,cvmt/test_items/t128.jpeg,o,1.6368,,,,,,,,,,,,,,,,,,,,,,,,,,,
,,117572,043,1,2024-03-05_20h43.06.446,Memory and Syntax,2023.2.3,MacIntel,120.4819277,,,,,464.1546,466.155,o,1,466.155,466.1551,,0,,,466.1551,466.1554,,466.1554,466.1555,,0,128,128,128,1,cvmt/test_items/t129.jpeg,o,1.8195,,,,,,,,,,,,,,,,,,,,,,,,,,,
,,117572,043,1,2024-03-05_20h43.06.446,Memory and Syntax,2023.2.3,MacIntel,120.4819277,,,,,466.1556,468.1542,o,1,468.1542,468.1543,,0,,,468.1544,468.1545,,468.1545,468.1546,,0,129,129,129,1,cvmt/test_items/t130.jpeg,o,1.7489,,,,,,,,,,,,,,,,,,,,,,,,,,,
,,117572,043,1,2024-03-05_20h43.06.446,Memory and Syntax,2023.2.3,MacIntel,120.4819277,,,,,468.1547,470.1539,o,0,470.1539,470.1541,,0,,,470.1541,470.1543,,470.1543,470.1543,,0,130,130,130,1,cvmt/test_items/t131.jpeg,n,1.4005,,,,,,,,,,,,,,,,,,,,,,,,,,,
,,117572,043,1,2024-03-05_20h43.06.446,Memory and Syntax,2023.2.3,MacIntel,120.4819277,,,,,470.1544,472.1549,o,1,472.1549,472.155,,0,,,472.155,472.1553,,472.1553,472.1554,,0,131,131,131,1,cvmt/test_items/t132.jpeg,o,1.1088,,,,,,,,,,,,,,,,,,,,,,,,,,,
,,117572,043,1,2024-03-05_20h43.06.446,Memory and Syntax,2023.2.3,MacIntel,120.4819277,,,,,472.1555,474.1546,o,1,474.1546,474.1548,,0,,,474.1548,474.1551,,474.1551,474.1551,,0,132,132,132,1,cvmt/test_items/t133.jpeg,o,0.8706,,,,,,,,,,,,,,,,,,,,,,,,,,,
,,117572,043,1,2024-03-05_20h43.06.446,Memory and Syntax,2023.2.3,MacIntel,120.4819277,,,,,474.1553,476.1539,o,1,476.1539,476.154,,0,,,476.154,476.1543,,476.1543,476.1543,,0,133,133,133,1,cvmt/test_items/t134.jpeg,o,1.1208,,,,,,,,,,,,,,,,,,,,,,,,,,,
,,117572,043,1,2024-03-05_20h43.06.446,Memory and Syntax,2023.2.3,MacIntel,120.4819277,,,,,476.1544,478.1544,n,0,478.1544,478.1545,,0,,,478.1545,478.1547,,478.1547,478.1548,,0,134,134,134,1,cvmt/test_items/t135.jpeg,o,1.1588,,,,,,,,,,,,,,,,,,,,,,,,,,,
,,117572,043,1,2024-03-05_20h43.06.446,Memory and Syntax,2023.2.3,MacIntel,120.4819277,,,,,,,,,,,,,,,,,,,,,,,,,,,,,,,,,,478.1551,478.1552,1E-04,478.1657,497.6467,space,18.7685,,497.6549,506.7228,2,9.0651,0,0,0,0,1,1,1,WOV,8B,Practiced the virtuoso many pieces.
,,117572,043,1,2024-03-05_20h43.06.446,Memory and Syntax,2023.2.3,MacIntel,120.4819277,,,,,,,,,,,,,,,,,,,,,,,,,,,,,,,,,,,,,,,,,,506.7232,512.0129,7,5.2878,0,1,1,1,1,1,2,AS,6A,The rickety old boat sank.
,,117572,043,1,2024-03-05_20h43.06.446,Memory and Syntax,2023.2.3,MacIntel,120.4819277,,,,,,,,,,,,,,,,,,,,,,,,,,,,,,,,,,,,,,,,,,512.0131,517.3964,5.9,5.3811,0,2,2,2,1,1,3,WO,6A,The waiter set the table promptly.
,,117572,043,1,2024-03-05_20h43.06.446,Memory and Syntax,2023.2.3,MacIntel,120.4819277,,,,,,,,,,,,,,,,,,,,,,,,,,,,,,,,,,,,,,,,,,517.3966,525.713,2.1,8.3142,0,3,3,3,1,1,4,control,12B,They anticipate that everybody you do will contact Megan.
,,117572,043,1,2024-03-05_20h43.06.446,Memory and Syntax,2023.2.3,MacIntel,120.4819277,,,,,,,,,,,,,,,,,,,,,,,,,,,,,,,,,,,,,,,,,,525.7132,534.0625,1,8.3478,0,4,4,4,1,1,5,ASV,11B,The cat moved himself away.
,,117572,043,1,2024-03-05_20h43.06.446,Memory and Syntax,2023.2.3,MacIntel,120.4819277,,,,,,,,,,,,,,,,,,,,,,,,,,,,,,,,,,,,,,,,,,534.0626,538.5206,3,4.4565,0,5,5,5,1,1,6,ASV,7B,She laughed herself at the dog.
,,117572,043,1,2024-03-05_20h43.06.446,Memory and Syntax,2023.2.3,MacIntel,120.4819277,,,,,,,,,,,,,,,,,,,,,,,,,,,,,,,,,,,,,,,,,,538.5209,543.3538,7,4.8316,0,6,6,6,1,1,7,AS,5A,The professor cried about the article.
,,117572,043,1,2024-03-05_20h43.06.446,Memory and Syntax,2023.2.3,MacIntel,120.4819277,,,,,,,,,,,,,,,,,,,,,,,,,,,,,,,,,,,,,,,,,,543.3539,548.4459,7,5.0903,0,7,7,7,1,1,8,WO,5A,My sibling expected a good grade.
,,117572,043,1,2024-03-05_20h43.06.446,Memory and Syntax,2023.2.3,MacIntel,120.4819277,,,,,,,,,,,,,,,,,,,,,,,,,,,,,,,,,,,,,,,,,,548.446,553.7708,7,5.3231,0,8,8,8,1,1,9,filler,1A,There has been a man considered violent.
,,117572,043,1,2024-03-05_20h43.06.446,Memory and Syntax,2023.2.3,MacIntel,120.4819277,,,,,,,,,,,,,,,,,,,,,,,,,,,,,,,,,,,,,,,,,,553.771,556.7455,7,2.9732,0,9,9,9,1,1,10,AS,2A,Taylor subscribed to the channel.
,,117572,043,1,2024-03-05_20h43.06.446,Memory and Syntax,2023.2.3,MacIntel,120.4819277,,,,,,,,,,,,,,,,,,,,,,,,,,,,,,,,,,,,,,,,,,556.7457,560.462,1,3.7152,0,10,10,10,1,1,11,control,10B,There might fossils seem to be several miles underground.
,,117572,043,1,2024-03-05_20h43.06.446,Memory and Syntax,2023.2.3,MacIntel,120.4819277,,,,,,,,,,,,,,,,,,,,,,,,,,,,,,,,,,,,,,,,,,560.4623,566.5221,1,6.0572,0,11,11,11,1,1,12,ASV,8B,Esperanza sighed herself at the desk.
,,117572,043,1,2024-03-05_20h43.06.446,Memory and Syntax,2023.2.3,MacIntel,120.4819277,,,,,,,,,,,,,,,,,,,,,,,,,,,,,,,,,,,,,,,,,,566.5222,570.2542,1,3.7308,0,12,12,12,1,1,13,WOV,9B,Read we five pages each night.
,,117572,043,1,2024-03-05_20h43.06.446,Memory and Syntax,2023.2.3,MacIntel,120.4819277,,,,,,,,,,,,,,,,,,,,,,,,,,,,,,,,,,,,,,,,,,570.2543,578.0454,2,7.7895,0,13,13,13,1,1,14,WOV,7B,Frightened the eerie sound Seth.
,,117572,043,1,2024-03-05_20h43.06.446,Memory and Syntax,2023.2.3,MacIntel,120.4819277,,,,,,,,,,,,,,,,,,,,,,,,,,,,,,,,,,,,,,,,,,578.0456,585.3206,3,7.2734,0,14,14,14,1,1,15,filler,2A,"Arty is sick, and Mark is too."
,,117572,043,1,2024-03-05_20h43.06.446,Memory and Syntax,2023.2.3,MacIntel,120.4819277,,,,,,,,,,,,,,,,,,,,,,,,,,,,,,,,,,,,,,,,,,585.3209,591.6624,5,6.3404,0,15,15,15,1,1,16,ASV,9B,The prime minister confessed herself to bribery.
,,117572,043,1,2024-03-05_20h43.06.446,Memory and Syntax,2023.2.3,MacIntel,120.4819277,,,,,,,,,,,,,,,,,,,,,,,,,,,,,,,,,,,,,,,,,,591.6626,601.8203,3,10.1565,0,16,16,16,1,1,17,control,7B,Olivia told Gregory when to exonerate herself.
,,117572,043,1,2024-03-05_20h43.06.446,Memory and Syntax,2023.2.3,MacIntel,120.4819277,,,,,,,,,,,,,,,,,,,,,,,,,,,,,,,,,,,,,,,,,,601.8205,606.5461,2,4.7234,0,17,17,17,1,1,18,control,11B,There are likely students to be in the library.
,,117572,043,1,2024-03-05_20h43.06.446,Memory and Syntax,2023.2.3,MacIntel,120.4819277,,,,,,,,,,,,,,,,,,,,,,,,,,,,,,,,,,,,,,,,,,606.5464,612.2619,5,5.7143,0,18,18,18,1,1,19,filler,5A,I told Mandy who would win the election.
,,117572,043,1,2024-03-05_20h43.06.446,Memory and Syntax,2023.2.3,MacIntel,120.4819277,,,,,,,,,,,,,,,,,,,,,,,,,,,,,,,,,,,,,,,,,,612.2621,616.2127,2.9,3.9485,0,19,19,19,1,1,20,control,9B,We consider there three problems.
,,117572,043,1,2024-03-05_20h43.06.446,Memory and Syntax,2023.2.3,MacIntel,120.4819277,,,,,,,,,,,,,,,,,,,,,,,,,,,,,,,,,,,,,,,,,,616.2128,622.4785,2.9,6.2645,0,20,20,20,1,1,21,control,8B,She called Victor and yelled at.
,,117572,043,1,2024-03-05_20h43.06.446,Memory and Syntax,2023.2.3,MacIntel,120.4819277,,,,,,,,,,,,,,,,,,,,,,,,,,,,,,,,,,,,,,,,,,622.4788,625.8123,7,3.3319,0,21,21,21,1,1,22,WO,4A,The bully pushed every student.
,,117572,043,1,2024-03-05_20h43.06.446,Memory and Syntax,2023.2.3,MacIntel,120.4819277,,,,,,,,,,,,,,,,,,,,,,,,,,,,,,,,,,,,,,,,,,625.8125,629.9285,7,4.1148,0,22,22,22,1,1,23,WO,3A,Miguel baked delicious cupcakes.
,,117572,043,1,2024-03-05_20h43.06.446,Memory and Syntax,2023.2.3,MacIntel,120.4819277,,,,,,,,,,,,,,,,,,,,,,,,,,,,,,,,,,,,,,,,,,629.9287,632.9044,7,2.9737,0,23,23,23,1,1,24,WO,1A,Abby answered the question.
,,117572,043,1,2024-03-05_20h43.06.446,Memory and Syntax,2023.2.3,MacIntel,120.4819277,,,,,,,,,,,,,,,,,,,,,,,,,,,,,,,,,,,,,,,,,,632.9045,636.6126,7,3.706,0,24,24,24,1,1,25,filler,3A,Brittany attempted to touch the porcupine.
,,117572,043,1,2024-03-05_20h43.06.446,Memory and Syntax,2023.2.3,MacIntel,120.4819277,,,,,,,,,,,,,,,,,,,,,,,,,,,,,,,,,,,,,,,,,,636.6129,639.7126,7,3.0978,0,25,25,25,1,1,26,AS,3A,Gracie stayed by the window.
,,117572,043,1,2024-03-05_20h43.06.446,Memory and Syntax,2023.2.3,MacIntel,120.4819277,,,,,,,,,,,,,,,,,,,,,,,,,,,,,,,,,,,,,,,,,,639.7127,646.2554,1,6.5401,0,26,26,26,1,1,27,WOV,11B,Wrote she her boyfriend a poem.
,,117572,043,1,2024-03-05_20h43.06.446,Memory and Syntax,2023.2.3,MacIntel,120.4819277,,,,,,,,,,,,,,,,,,,,,,,,,,,,,,,,,,,,,,,,,,646.2555,649.6452,1,3.3887,0,27,27,27,1,1,28,WOV,12B,Watched Lily a movie.
,,117572,043,1,2024-03-05_20h43.06.446,Memory and Syntax,2023.2.3,MacIntel,120.4819277,,,,,,,,,,,,,,,,,,,,,,,,,,,,,,,,,,,,,,,,,,649.6455,653.6875,7,4.04,0,28,28,28,1,1,29,WO,2A,Jackie won the close race.
,,117572,043,1,2024-03-05_20h43.06.446,Memory and Syntax,2023.2.3,MacIntel,120.4819277,,,,,,,,,,,,,,,,,,,,,,,,,,,,,,,,,,,,,,,,,,653.6877,659.5542,5,5.8645,0,29,29,29,1,1,30,AS,4A,Tomas drank from the water pitcher.
,,117572,043,1,2024-03-05_20h43.06.446,Memory and Syntax,2023.2.3,MacIntel,120.4819277,,,,,,,,,,,,,,,,,,,,,,,,,,,,,,,,,,,,,,,,,,659.5544,662.4536,1,2.8981,0,30,30,30,1,1,31,WOV,10B,Kissed Kareem his boyfriend.
,,117572,043,1,2024-03-05_20h43.06.446,Memory and Syntax,2023.2.3,MacIntel,120.4819277,,,,,,,,,,,,,,,,,,,,,,,,,,,,,,,,,,,,,,,,,,662.4537,668.2207,3.7,5.7652,0,31,31,31,1,1,32,ASV,10B,The children quieted themselves.
,,117572,043,1,2024-03-05_20h43.06.446,Memory and Syntax,2023.2.3,MacIntel,120.4819277,,,,,,,,,,,,,,,,,,,,,,,,,,,,,,,,,,,,,,,,,,668.2209,672.2618,7,4.0399,0,32,32,32,1,1,33,AS,1A,They fidgeted in their chairs.
,,117572,043,1,2024-03-05_20h43.06.446,Memory and Syntax,2023.2.3,MacIntel,120.4819277,,,,,,,,,,,,,,,,,,,,,,,,,,,,,,,,,,,,,,,,,,672.262,678.7038,1,6.4402,0,33,33,33,1,1,34,filler,4A,It seems to him that Kim solved the problem.
,,117572,043,1,2024-03-05_20h43.06.446,Memory and Syntax,2023.2.3,MacIntel,120.4819277,,,,,,,,,,,,,,,,,,,,,,,,,,,,,,,,,,,,,,,,,,678.704,682.8033,7,4.0982,0,34,34,34,1,1,35,ASV,12B,The swimmers shaved themselves.