load.started,load.stopped,Sona ID,Participant ID,Session,date,expName,psychopyVersion,OS,frameRate,cvmtInstr.started,cvmtInstr.stopped,cvmtTaskInstr.started,cvmtTaskInstr.stopped,presentDesign.started,presentDesign.stopped,cvmt_key_resp.keys,cvmt_key_resp.corr,cvmtNoResp.started,cvmtNoResp.stopped,cvmt_key_resp2.keys,cvmt_key_resp2.corr,cvmt_key_resp2.rt,cvmt_key_resp2.duration,cvmtSampleFB.started,cvmtSampleFB.stopped,key_resp_15.keys,key_resp_15.rt,key_resp_15.duration,cvmtSampleFBFinal.started,cvmtSampleFBFinal.stopped,cvmt_final_samp_fb_key_resp.keys,cvmtTrials.thisRepN,cvmtTrials.thisTrialN,cvmtTrials.thisN,cvmtTrials.thisIndex,cvmtTrials.ran,cvmt_design,old_or_new,cvmt_key_resp.rt,cvmt_key_resp.duration,cvmt_final_samp_fb_key_resp.rt,cvmt_final_samp_fb_key_resp.duration,cvmtDelay.started,cvmtDelay.stopped,cvmt timer,engAJT_instr.started,engAJT_instr.stopped,start_ajt.keys,start_ajt.rt,start_ajt.duration,engAJT.started,engAJT.stopped,acceptability.response,acceptability.rt,engAJT_trials.thisRepN,engAJT_trials.thisTrialN,engAJT_trials.thisN,engAJT_trials.thisIndex,engAJT_trials.ran,ajt_list,list_position,condition,item,testSent
0.001,0.261,118565,132,1,2024-03-13_00h32.11.208,Memory and Syntax,2023.2.3,MacIntel,58.82352941,,,,,,,,,,,,,,,,,,,,,,,,,,,,,,,,,,,,,,,,,,,,,,,,,,,,,,,
,,118565,132,1,2024-03-13_00h32.11.208,Memory and Syntax,2023.2.3,MacIntel,58.82352941,0.279,10.124,10.131,12.406,12.433,14.423,,0,14.423,31.457,o,0,17.002,,31.458,41.006,c,9.515,,41.007,41.012,,0,0,0,0,1,cvmt/sample/s1.jpg,n,,,,,,,,,,,,,,,,,,,,,,,,,,
,,118565,132,1,2024-03-13_00h32.11.208,Memory and Syntax,2023.2.3,MacIntel,58.82352941,,,,,41.013,43.005,,0,43.005,45.489,n,1,2.473,,45.489,45.495,,,,45.495,45.495,,0,1,1,1,1,cvmt/sample/s2.jpg,n,,,,,,,,,,,,,,,,,,,,,,,,,,
,,118565,132,1,2024-03-13_00h32.11.208,Memory and Syntax,2023.2.3,MacIntel,58.82352941,,,,,45.496,47.488,,0,47.489,47.489,,0,,,47.489,47.49,,,,47.49,47.49,,0,2,2,2,1,cvmt/sample/s3.jpg,o,,,,,,,,,,,,,,,,,,,,,,,,,,
,,118565,132,1,2024-03-13_00h32.11.208,Memory and Syntax,2023.2.3,MacIntel,58.82352941,,,,,47.49,49.488,n,1,49.488,49.489,,0,,,49.489,49.49,,,,49.49,49.49,,0,3,3,3,1,cvmt/sample/s4.jpg,n,1.126,,,,,,,,,,,,,,,,,,,,,,,,,
,,118565,132,1,2024-03-13_00h32.11.208,Memory and Syntax,2023.2.3,MacIntel,58.82352941,,,,,49.49,51.489,n,1,51.489,51.489,,0,,,51.489,51.49,,,,51.49,51.49,,0,4,4,4,1,cvmt/sample/s5.jpg,n,0.998,,,,,,,,,,,,,,,,,,,,,,,,,
,,118565,132,1,2024-03-13_00h32.11.208,Memory and Syntax,2023.2.3,MacIntel,58.82352941,,,,,51.49,53.488,n,1,53.489,53.489,,0,,,53.489,53.49,,,,53.49,53.49,,0,5,5,5,1,cvmt/sample/s6.jpg,n,0.721,,,,,,,,,,,,,,,,,,,,,,,,,
,,118565,132,1,2024-03-13_00h32.11.208,Memory and Syntax,2023.2.3,MacIntel,58.82352941,,,,,53.49,55.489,o,1,55.489,55.489,,0,,,55.489,55.49,,,,55.49,55.49,,0,6,6,6,1,cvmt/sample/s7.jpg,o,1.057,,,,,,,,,,,,,,,,,,,,,,,,,
,,118565,132,1,2024-03-13_00h32.11.208,Memory and Syntax,2023.2.3,MacIntel,58.82352941,,,,,55.49,57.489,n,1,57.489,57.49,,0,,,57.49,57.49,,,,57.49,57.491,,0,7,7,7,1,cvmt/sample/s8.jpg,n,1.754,,,,,,,,,,,,,,,,,,,,,,,,,
,,118565,132,1,2024-03-13_00h32.11.208,Memory and Syntax,2023.2.3,MacIntel,58.82352941,,,,,57.491,59.488,n,1,59.488,59.489,,0,,,59.489,59.49,,,,59.49,59.49,,0,8,8,8,1,cvmt/sample/s9.jpg,n,1.505,,,,,,,,,,,,,,,,,,,,,,,,,
,,118565,132,1,2024-03-13_00h32.11.208,Memory and Syntax,2023.2.3,MacIntel,58.82352941,,,,,59.49,61.488,n,1,61.488,61.489,,0,,,61.489,61.49,,,,61.49,61.49,,0,9,9,9,1,cvmt/sample/s10.jpg,n,1.04,,,,,,,,,,,,,,,,,,,,,,,,,
,,118565,132,1,2024-03-13_00h32.11.208,Memory and Syntax,2023.2.3,MacIntel,58.82352941,,,,,61.49,63.488,o,1,63.488,63.489,,0,,,63.489,63.49,,,,63.49,96.359,c,0,10,10,10,1,cvmt/sample/s11.jpg,o,1.023,,32.829,,,,,,,,,,,,,,,,,,,,,,,
,,118565,132,1,2024-03-13_00h32.11.208,Memory and Syntax,2023.2.3,MacIntel,58.82352941,,,96.361,106.805,106.819,108.821,n,1,108.822,108.822,,0,,,108.823,108.823,,,,108.823,108.829,,0,0,0,0,1,cvmt/test_items/t1.jpeg,n,1.567,,,,,,,,,,,,,,,,,,,,,,,,,
,,118565,132,1,2024-03-13_00h32.11.208,Memory and Syntax,2023.2.3,MacIntel,58.82352941,,,,,108.83,110.822,n,1,110.822,110.822,,0,,,110.822,110.823,,,,110.823,110.823,,0,1,1,1,1,cvmt/test_items/t2.jpeg,n,1.481,,,,,,,,,,,,,,,,,,,,,,,,,
,,118565,132,1,2024-03-13_00h32.11.208,Memory and Syntax,2023.2.3,MacIntel,58.82352941,,,,,110.823,112.822,n,0,112.822,112.822,,0,,,112.822,112.823,,,,112.823,112.823,,0,2,2,2,1,cvmt/test_items/t3.jpeg,o,0.736,,,,,,,,,,,,,,,,,,,,,,,,,
,,118565,132,1,2024-03-13_00h32.11.208,Memory and Syntax,2023.2.3,MacIntel,58.82352941,,,,,112.824,114.822,n,0,114.822,114.823,,0,,,114.823,114.824,,,,114.824,114.824,,0,3,3,3,1,cvmt/test_items/t4.jpeg,o,0.747,,,,,,,,,,,,,,,,,,,,,,,,,
,,118565,132,1,2024-03-13_00h32.11.208,Memory and Syntax,2023.2.3,MacIntel,58.82352941,,,,,114.824,116.822,n,0,116.822,116.822,,0,,,116.823,116.823,,,,116.823,116.823,,0,4,4,4,1,cvmt/test_items/t5.jpeg,o,0.666,,,,,,,,,,,,,,,,,,,,,,,,,
,,118565,132,1,2024-03-13_00h32.11.208,Memory and Syntax,2023.2.3,MacIntel,58.82352941,,,,,116.824,118.822,n,0,118.822,118.822,,0,,,118.822,118.822,,,,118.822,118.822,,0,5,5,5,1,cvmt/test_items/t6.jpeg,o,0.588,,,,,,,,,,,,,,,,,,,,,,,,,
,,118565,132,1,2024-03-13_00h32.11.208,Memory and Syntax,2023.2.3,MacIntel,58.82352941,,,,,118.823,120.821,n,0,120.821,120.822,,0,,,120.822,120.822,,,,120.822,120.823,,0,6,6,6,1,cvmt/test_items/t7.jpeg,o,0.902,,,,,,,,,,,,,,,,,,,,,,,,,
,,118565,132,1,2024-03-13_00h32.11.208,Memory and Syntax,2023.2.3,MacIntel,58.82352941,,,,,120.823,122.822,n,0,122.822,122.822,,0,,,122.822,122.823,,,,122.823,122.823,,0,7,7,7,1,cvmt/test_items/t8.jpeg,o,0.741,,,,,,,,,,,,,,,,,,,,,,,,,
,,118565,132,1,2024-03-13_00h32.11.208,Memory and Syntax,2023.2.3,MacIntel,58.82352941,,,,,122.823,124.822,n,0,124.822,124.822,,0,,,124.822,124.823,,,,124.823,124.823,,0,8,8,8,1,cvmt/test_items/t9.jpeg,o,1.879,,,,,,,,,,,,,,,,,,,,,,,,,
,,118565,132,1,2024-03-13_00h32.11.208,Memory and Syntax,2023.2.3,MacIntel,58.82352941,,,,,124.823,126.821,n,0,126.821,126.821,,0,,,126.821,126.822,,,,126.822,126.822,,0,9,9,9,1,cvmt/test_items/t10.jpeg,o,0.969,,,,,,,,,,,,,,,,,,,,,,,,,
,,118565,132,1,2024-03-13_00h32.11.208,Memory and Syntax,2023.2.3,MacIntel,58.82352941,,,,,126.822,128.821,n,1,128.822,128.822,,0,,,128.822,128.823,,,,128.823,128.823,,0,10,10,10,1,cvmt/test_items/t11.jpeg,n,0.838,,,,,,,,,,,,,,,,,,,,,,,,,
,,118565,132,1,2024-03-13_00h32.11.208,Memory and Syntax,2023.2.3,MacIntel,58.82352941,,,,,128.823,130.822,n,0,130.822,130.822,,0,,,130.822,130.823,,,,130.823,130.823,,0,11,11,11,1,cvmt/test_items/t12.jpeg,o,0.617,,,,,,,,,,,,,,,,,,,,,,,,,
,,118565,132,1,2024-03-13_00h32.11.208,Memory and Syntax,2023.2.3,MacIntel,58.82352941,,,,,130.824,132.822,n,0,132.822,132.822,,0,,,132.822,132.823,,,,132.823,132.823,,0,12,12,12,1,cvmt/test_items/t13.jpeg,o,1.571,,,,,,,,,,,,,,,,,,,,,,,,,
,,118565,132,1,2024-03-13_00h32.11.208,Memory and Syntax,2023.2.3,MacIntel,58.82352941,,,,,132.824,134.821,n,0,134.822,134.822,,0,,,134.822,134.823,,,,134.823,134.823,,0,13,13,13,1,cvmt/test_items/t14.jpeg,o,0.761,,,,,,,,,,,,,,,,,,,,,,,,,
,,118565,132,1,2024-03-13_00h32.11.208,Memory and Syntax,2023.2.3,MacIntel,58.82352941,,,,,134.824,136.821,o,1,136.821,136.821,,0,,,136.821,136.821,,,,136.822,136.822,,0,14,14,14,1,cvmt/test_items/t15.jpeg,o,1.197,,,,,,,,,,,,,,,,,,,,,,,,,
,,118565,132,1,2024-03-13_00h32.11.208,Memory and Syntax,2023.2.3,MacIntel,58.82352941,,,,,136.822,138.821,n,0,138.822,138.822,,0,,,138.822,138.823,,,,138.823,138.823,,0,15,15,15,1,cvmt/test_items/t16.jpeg,o,1.671,,,,,,,,,,,,,,,,,,,,,,,,,
,,118565,132,1,2024-03-13_00h32.11.208,Memory and Syntax,2023.2.3,MacIntel,58.82352941,,,,,138.823,140.821,n,0,140.822,140.822,,0,,,140.822,140.823,,,,140.823,140.823,,0,16,16,16,1,cvmt/test_items/t17.jpeg,o,0.77,,,,,,,,,,,,,,,,,,,,,,,,,
,,118565,132,1,2024-03-13_00h32.11.208,Memory and Syntax,2023.2.3,MacIntel,58.82352941,,,,,140.824,142.821,n,0,142.821,142.822,,0,,,142.822,142.823,,,,142.823,142.823,,0,17,17,17,1,cvmt/test_items/t18.jpeg,o,0.716,,,,,,,,,,,,,,,,,,,,,,,,,
,,118565,132,1,2024-03-13_00h32.11.208,Memory and Syntax,2023.2.3,MacIntel,58.82352941,,,,,142.823,144.821,n,1,144.821,144.822,,0,,,144.822,144.822,,,,144.822,144.822,,0,18,18,18,1,cvmt/test_items/t19.jpeg,n,0.537,,,,,,,,,,,,,,,,,,,,,,,,,
,,118565,132,1,2024-03-13_00h32.11.208,Memory and Syntax,2023.2.3,MacIntel,58.82352941,,,,,144.823,146.822,o,1,146.822,146.822,,0,,,146.822,146.823,,,,146.823,146.823,,0,19,19,19,1,cvmt/test_items/t20.jpeg,o,0.828,,,,,,,,,,,,,,,,,,,,,,,,,
,,118565,132,1,2024-03-13_00h32.11.208,Memory and Syntax,2023.2.3,MacIntel,58.82352941,,,,,146.823,148.821,n,0,148.821,148.821,,0,,,148.821,148.822,,,,148.822,148.822,,0,20,20,20,1,cvmt/test_items/t21.jpeg,o,0.654,,,,,,,,,,,,,,,,,,,,,,,,,
,,118565,132,1,2024-03-13_00h32.11.208,Memory and Syntax,2023.2.3,MacIntel,58.82352941,,,,,148.823,150.822,o,1,150.822,150.822,,0,,,150.822,150.823,,,,150.823,150.823,,0,21,21,21,1,cvmt/test_items/t22.jpeg,o,1.191,,,,,,,,,,,,,,,,,,,,,,,,,
,,118565,132,1,2024-03-13_00h32.11.208,Memory and Syntax,2023.2.3,MacIntel,58.82352941,,,,,150.824,152.821,n,1,152.821,152.822,,0,,,152.822,152.822,,,,152.822,152.823,,0,22,22,22,1,cvmt/test_items/t23.jpeg,n,1.23,,,,,,,,,,,,,,,,,,,,,,,,,
,,118565,132,1,2024-03-13_00h32.11.208,Memory and Syntax,2023.2.3,MacIntel,58.82352941,,,,,152.823,154.821,n,1,154.822,154.822,,0,,,154.822,154.823,,,,154.823,154.823,,0,23,23,23,1,cvmt/test_items/t24.jpeg,n,1.34,,,,,,,,,,,,,,,,,,,,,,,,,
,,118565,132,1,2024-03-13_00h32.11.208,Memory and Syntax,2023.2.3,MacIntel,58.82352941,,,,,154.824,156.821,o,1,156.821,156.822,,0,,,156.822,156.823,,,,156.823,156.823,,0,24,24,24,1,cvmt/test_items/t25.jpeg,o,0.828,,,,,,,,,,,,,,,,,,,,,,,,,
,,118565,132,1,2024-03-13_00h32.11.208,Memory and Syntax,2023.2.3,MacIntel,58.82352941,,,,,156.823,158.821,o,0,158.821,158.822,,0,,,158.822,158.823,,,,158.823,158.823,,0,25,25,25,1,cvmt/test_items/t26.jpeg,n,1.179,,,,,,,,,,,,,,,,,,,,,,,,,
,,118565,132,1,2024-03-13_00h32.11.208,Memory and Syntax,2023.2.3,MacIntel,58.82352941,,,,,158.823,160.821,o,1,160.821,160.822,,0,,,160.822,160.823,,,,160.823,160.823,,0,26,26,26,1,cvmt/test_items/t27.jpeg,o,1.036,,,,,,,,,,,,,,,,,,,,,,,,,
,,118565,132,1,2024-03-13_00h32.11.208,Memory and Syntax,2023.2.3,MacIntel,58.82352941,,,,,160.823,162.821,n,1,162.821,162.821,,0,,,162.821,162.822,,,,162.822,162.822,,0,27,27,27,1,cvmt/test_items/t28.jpeg,n,0.935,,,,,,,,,,,,,,,,,,,,,,,,,
,,118565,132,1,2024-03-13_00h32.11.208,Memory and Syntax,2023.2.3,MacIntel,58.82352941,,,,,162.823,164.821,n,1,164.821,164.821,,0,,,164.821,164.822,,,,164.822,164.822,,0,28,28,28,1,cvmt/test_items/t29.jpeg,n,1.103,,,,,,,,,,,,,,,,,,,,,,,,,
,,118565,132,1,2024-03-13_00h32.11.208,Memory and Syntax,2023.2.3,MacIntel,58.82352941,,,,,164.823,166.821,o,1,166.821,166.822,,0,,,166.822,166.822,,,,166.823,166.823,,0,29,29,29,1,cvmt/test_items/t30.jpeg,o,1.562,,,,,,,,,,,,,,,,,,,,,,,,,
,,118565,132,1,2024-03-13_00h32.11.208,Memory and Syntax,2023.2.3,MacIntel,58.82352941,,,,,166.823,168.821,o,1,168.821,168.821,,0,,,168.821,168.822,,,,168.822,168.822,,0,30,30,30,1,cvmt/test_items/t31.jpeg,o,0.832,,,,,,,,,,,,,,,,,,,,,,,,,
,,118565,132,1,2024-03-13_00h32.11.208,Memory and Syntax,2023.2.3,MacIntel,58.82352941,,,,,168.822,170.821,n,1,170.821,170.821,,0,,,170.821,170.821,,,,170.821,170.822,,0,31,31,31,1,cvmt/test_items/t32.jpeg,n,0.732,,,,,,,,,,,,,,,,,,,,,,,,,
,,118565,132,1,2024-03-13_00h32.11.208,Memory and Syntax,2023.2.3,MacIntel,58.82352941,,,,,170.822,172.821,o,0,172.822,172.822,,0,,,172.822,172.823,,,,172.823,172.823,,0,32,32,32,1,cvmt/test_items/t33.jpeg,n,0.728,,,,,,,,,,,,,,,,,,,,,,,,,
,,118565,132,1,2024-03-13_00h32.11.208,Memory and Syntax,2023.2.3,MacIntel,58.82352941,,,,,172.823,174.821,o,1,174.821,174.822,,0,,,174.822,174.822,,,,174.822,174.822,,0,33,33,33,1,cvmt/test_items/t34.jpeg,o,0.776,,,,,,,,,,,,,,,,,,,,,,,,,
,,118565,132,1,2024-03-13_00h32.11.208,Memory and Syntax,2023.2.3,MacIntel,58.82352941,,,,,174.823,176.821,n,1,176.821,176.821,,0,,,176.821,176.822,,,,176.822,176.822,,0,34,34,34,1,cvmt/test_items/t35.jpeg,n,1.064,,,,,,,,,,,,,,,,,,,,,,,,,
,,118565,132,1,2024-03-13_00h32.11.208,Memory and Syntax,2023.2.3,MacIntel,58.82352941,,,,,176.822,178.821,o,1,178.821,178.822,,0,,,178.822,178.822,,,,178.822,178.822,,0,35,35,35,1,cvmt/test_items/t36.jpeg,o,0.946,,,,,,,,,,,,,,,,,,,,,,,,,
,,118565,132,1,2024-03-13_00h32.11.208,Memory and Syntax,2023.2.3,MacIntel,58.82352941,,,,,178.823,180.821,n,1,180.821,180.822,,0,,,180.822,180.822,,,,180.822,180.823,,0,36,36,36,1,cvmt/test_items/t37.jpeg,n,0.88,,,,,,,,,,,,,,,,,,,,,,,,,
,,118565,132,1,2024-03-13_00h32.11.208,Memory and Syntax,2023.2.3,MacIntel,58.82352941,,,,,180.823,182.821,o,1,182.821,182.822,,0,,,182.822,182.822,,,,182.822,182.822,,0,37,37,37,1,cvmt/test_items/t38.jpeg,o,0.829,,,,,,,,,,,,,,,,,,,,,,,,,
,,118565,132,1,2024-03-13_00h32.11.208,Memory and Syntax,2023.2.3,MacIntel,58.82352941,,,,,182.823,184.821,n,1,184.822,184.822,,0,,,184.822,184.822,,,,184.822,184.823,,0,38,38,38,1,cvmt/test_items/t39.jpeg,n,0.646,,,,,,,,,,,,,,,,,,,,,,,,,
,,118565,132,1,2024-03-13_00h32.11.208,Memory and Syntax,2023.2.3,MacIntel,58.82352941,,,,,184.823,186.821,n,0,186.821,186.821,,0,,,186.821,186.822,,,,186.822,186.822,,0,39,39,39,1,cvmt/test_items/t40.jpeg,o,1.162,,,,,,,,,,,,,,,,,,,,,,,,,
,,118565,132,1,2024-03-13_00h32.11.208,Memory and Syntax,2023.2.3,MacIntel,58.82352941,,,,,186.822,188.82,n,1,188.82,188.821,,0,,,188.821,188.821,,,,188.821,188.821,,0,40,40,40,1,cvmt/test_items/t41.jpeg,n,0.703,,,,,,,,,,,,,,,,,,,,,,,,,
,,118565,132,1,2024-03-13_00h32.11.208,Memory and Syntax,2023.2.3,MacIntel,58.82352941,,,,,188.822,190.821,o,1,190.821,190.821,,0,,,190.821,190.822,,,,190.822,190.822,,0,41,41,41,1,cvmt/test_items/t42.jpeg,o,0.681,,,,,,,,,,,,,,,,,,,,,,,,,
,,118565,132,1,2024-03-13_00h32.11.208,Memory and Syntax,2023.2.3,MacIntel,58.82352941,,,,,190.822,192.821,o,1,192.821,192.821,,0,,,192.822,192.822,,,,192.822,192.822,,0,42,42,42,1,cvmt/test_items/t43.jpeg,o,0.726,,,,,,,,,,,,,,,,,,,,,,,,,
,,118565,132,1,2024-03-13_00h32.11.208,Memory and Syntax,2023.2.3,MacIntel,58.82352941,,,,,192.823,194.821,n,1,194.821,194.821,,0,,,194.822,194.822,,,,194.822,194.822,,0,43,43,43,1,cvmt/test_items/t44.jpeg,n,1.198,,,,,,,,,,,,,,,,,,,,,,,,,
,,118565,132,1,2024-03-13_00h32.11.208,Memory and Syntax,2023.2.3,MacIntel,58.82352941,,,,,194.823,196.821,n,0,196.821,196.821,,0,,,196.821,196.821,,,,196.821,196.822,,0,44,44,44,1,cvmt/test_items/t45.jpeg,o,1.095,,,,,,,,,,,,,,,,,,,,,,,,,
,,118565,132,1,2024-03-13_00h32.11.208,Memory and Syntax,2023.2.3,MacIntel,58.82352941,,,,,196.822,198.821,o,1,198.821,198.821,,0,,,198.821,198.822,,,,198.822,198.822,,0,45,45,45,1,cvmt/test_items/t46.jpeg,o,0.801,,,,,,,,,,,,,,,,,,,,,,,,,
,,118565,132,1,2024-03-13_00h32.11.208,Memory and Syntax,2023.2.3,MacIntel,58.82352941,,,,,198.823,200.821,,0,200.821,200.838,n,0,0.001,,200.838,200.838,,,,200.838,200.839,,0,46,46,46,1,cvmt/test_items/t47.jpeg,o,,,,,,,,,,,,,,,,,,,,,,,,,,
,,118565,132,1,2024-03-13_00h32.11.208,Memory and Syntax,2023.2.3,MacIntel,58.82352941,,,,,200.839,202.838,,0,202.838,210.388,o,0,7.533,,210.388,210.388,,,,210.388,210.389,,0,47,47,47,1,cvmt/test_items/t48.jpeg,n,,,,,,,,,,,,,,,,,,,,,,,,,,
,,118565,132,1,2024-03-13_00h32.11.208,Memory and Syntax,2023.2.3,MacIntel,58.82352941,,,,,210.389,212.387,n,0,212.387,212.388,,0,,,212.388,212.388,,,,212.388,212.388,,0,48,48,48,1,cvmt/test_items/t49.jpeg,o,1.879,,,,,,,,,,,,,,,,,,,,,,,,,
,,118565,132,1,2024-03-13_00h32.11.208,Memory and Syntax,2023.2.3,MacIntel,58.82352941,,,,,212.389,214.387,o,1,214.388,214.388,,0,,,214.388,214.388,,,,214.388,214.389,,0,49,49,49,1,cvmt/test_items/t50.jpeg,o,0.962,,,,,,,,,,,,,,,,,,,,,,,,,
,,118565,132,1,2024-03-13_00h32.11.208,Memory and Syntax,2023.2.3,MacIntel,58.82352941,,,,,214.389,216.391,n,1,216.391,216.391,,0,,,216.391,216.391,,,,216.391,216.391,,0,50,50,50,1,cvmt/test_items/t51.jpeg,n,0.637,,,,,,,,,,,,,,,,,,,,,,,,,
,,118565,132,1,2024-03-13_00h32.11.208,Memory and Syntax,2023.2.3,MacIntel,58.82352941,,,,,216.392,218.387,n,0,218.388,218.388,,0,,,218.388,218.388,,,,218.388,218.389,,0,51,51,51,1,cvmt/test_items/t52.jpeg,o,0.83,,,,,,,,,,,,,,,,,,,,,,,,,
,,118565,132,1,2024-03-13_00h32.11.208,Memory and Syntax,2023.2.3,MacIntel,58.82352941,,,,,218.389,220.388,,0,220.388,319.455,o,1,99.058,,319.455,319.456,,,,319.456,319.456,,0,52,52,52,1,cvmt/test_items/t53.jpeg,o,,,,,,,,,,,,,,,,,,,,,,,,,,
,,118565,132,1,2024-03-13_00h32.11.208,Memory and Syntax,2023.2.3,MacIntel,58.82352941,,,,,319.456,321.454,n,0,321.454,321.455,,0,,,321.455,321.455,,,,321.455,321.455,,0,53,53,53,1,cvmt/test_items/t54.jpeg,o,1.294,,,,,,,,,,,,,,,,,,,,,,,,,
,,118565,132,1,2024-03-13_00h32.11.208,Memory and Syntax,2023.2.3,MacIntel,58.82352941,,,,,321.456,323.453,n,0,323.453,323.453,,0,,,323.453,323.454,,,,323.454,323.454,,0,54,54,54,1,cvmt/test_items/t55.jpeg,o,0.845,,,,,,,,,,,,,,,,,,,,,,,,,
,,118565,132,1,2024-03-13_00h32.11.208,Memory and Syntax,2023.2.3,MacIntel,58.82352941,,,,,323.455,325.454,n,0,325.454,325.454,,0,,,325.454,325.455,,,,325.455,325.455,,0,55,55,55,1,cvmt/test_items/t56.jpeg,o,0.516,,,,,,,,,,,,,,,,,,,,,,,,,
,,118565,132,1,2024-03-13_00h32.11.208,Memory and Syntax,2023.2.3,MacIntel,58.82352941,,,,,325.455,327.454,n,0,327.454,327.454,,0,,,327.454,327.455,,,,327.455,327.455,,0,56,56,56,1,cvmt/test_items/t57.jpeg,o,0.463,,,,,,,,,,,,,,,,,,,,,,,,,
,,118565,132,1,2024-03-13_00h32.11.208,Memory and Syntax,2023.2.3,MacIntel,58.82352941,,,,,327.455,329.454,n,1,329.454,329.454,,0,,,329.454,329.455,,,,329.455,329.455,,0,57,57,57,1,cvmt/test_items/t58.jpeg,n,0.666,,,,,,,,,,,,,,,,,,,,,,,,,
,,118565,132,1,2024-03-13_00h32.11.208,Memory and Syntax,2023.2.3,MacIntel,58.82352941,,,,,329.455,331.454,,0,331.454,334.37,o,0,2.9,,334.371,334.371,,,,334.371,334.371,,0,58,58,58,1,cvmt/test_items/t59.jpeg,n,,,,,,,,,,,,,,,,,,,,,,,,,,
,,118565,132,1,2024-03-13_00h32.11.208,Memory and Syntax,2023.2.3,MacIntel,58.82352941,,,,,334.372,336.37,o,1,336.37,336.371,,0,,,336.371,336.371,,,,336.371,336.372,,0,59,59,59,1,cvmt/test_items/t60.jpeg,o,1.048,,,,,,,,,,,,,,,,,,,,,,,,,
,,118565,132,1,2024-03-13_00h32.11.208,Memory and Syntax,2023.2.3,MacIntel,58.82352941,,,,,336.372,338.37,n,0,338.371,338.371,,0,,,338.371,338.371,,,,338.371,338.371,,0,60,60,60,1,cvmt/test_items/t61.jpeg,o,1.154,,,,,,,,,,,,,,,,,,,,,,,,,
,,118565,132,1,2024-03-13_00h32.11.208,Memory and Syntax,2023.2.3,MacIntel,58.82352941,,,,,338.371,340.37,o,1,340.371,340.371,,0,,,340.371,340.371,,,,340.371,340.371,,0,61,61,61,1,cvmt/test_items/t62.jpeg,o,1.066,,,,,,,,,,,,,,,,,,,,,,,,,
,,118565,132,1,2024-03-13_00h32.11.208,Memory and Syntax,2023.2.3,MacIntel,58.82352941,,,,,340.371,342.37,,0,342.371,343.387,n,0,1.003,,343.387,343.388,,,,343.388,343.388,,0,62,62,62,1,cvmt/test_items/t63.jpeg,o,,,,,,,,,,,,,,,,,,,,,,,,,,
,,118565,132,1,2024-03-13_00h32.11.208,Memory and Syntax,2023.2.3,MacIntel,58.82352941,,,,,343.388,345.387,n,0,345.387,345.388,,0,,,345.388,345.389,,,,345.389,345.389,,0,63,63,63,1,cvmt/test_items/t64.jpeg,o,0.817,,,,,,,,,,,,,,,,,,,,,,,,,
,,118565,132,1,2024-03-13_00h32.11.208,Memory and Syntax,2023.2.3,MacIntel,58.82352941,,,,,345.389,347.386,,0,347.387,347.52,n,0,0.119,,347.52,347.521,,,,347.521,347.521,,0,64,64,64,1,cvmt/test_items/t65.jpeg,o,,,,,,,,,,,,,,,,,,,,,,,,,,
,,118565,132,1,2024-03-13_00h32.11.208,Memory and Syntax,2023.2.3,MacIntel,58.82352941,,,,,347.522,349.521,n,0,349.521,349.521,,0,,,349.521,349.522,,,,349.522,349.522,,0,65,65,65,1,cvmt/test_items/t66.jpeg,o,0.653,,,,,,,,,,,,,,,,,,,,,,,,,
,,118565,132,1,2024-03-13_00h32.11.208,Memory and Syntax,2023.2.3,MacIntel,58.82352941,,,,,349.523,351.52,n,1,351.52,351.521,,0,,,351.521,351.521,,,,351.521,351.522,,0,66,66,66,1,cvmt/test_items/t67.jpeg,n,0.081,,,,,,,,,,,,,,,,,,,,,,,,,
,,118565,132,1,2024-03-13_00h32.11.208,Memory and Syntax,2023.2.3,MacIntel,58.82352941,,,,,351.522,353.52,n,0,353.52,353.52,,0,,,353.52,353.521,,,,353.521,353.521,,0,67,67,67,1,cvmt/test_items/t68.jpeg,o,0.184,,,,,,,,,,,,,,,,,,,,,,,,,
,,118565,132,1,2024-03-13_00h32.11.208,Memory and Syntax,2023.2.3,MacIntel,58.82352941,,,,,353.521,355.52,,0,355.521,355.587,n,0,0.05,,355.587,355.588,,,,355.588,355.588,,0,68,68,68,1,cvmt/test_items/t69.jpeg,o,,,,,,,,,,,,,,,,,,,,,,,,,,
,,118565,132,1,2024-03-13_00h32.11.208,Memory and Syntax,2023.2.3,MacIntel,58.82352941,,,,,355.588,357.587,,0,357.587,359.12,o,1,1.522,,359.121,359.121,,,,359.121,359.121,,0,69,69,69,1,cvmt/test_items/t70.jpeg,o,,,,,,,,,,,,,,,,,,,,,,,,,,
,,118565,132,1,2024-03-13_00h32.11.208,Memory and Syntax,2023.2.3,MacIntel,58.82352941,,,,,359.122,361.12,n,1,361.12,361.121,,0,,,361.121,361.121,,,,361.121,361.122,,0,70,70,70,1,cvmt/test_items/t71.jpeg,n,0.881,,,,,,,,,,,,,,,,,,,,,,,,,
,,118565,132,1,2024-03-13_00h32.11.208,Memory and Syntax,2023.2.3,MacIntel,58.82352941,,,,,361.122,363.121,o,1,363.121,363.122,,0,,,363.122,363.123,,,,363.123,363.123,,0,71,71,71,1,cvmt/test_items/t72.jpeg,o,0.883,,,,,,,,,,,,,,,,,,,,,,,,,
,,118565,132,1,2024-03-13_00h32.11.208,Memory and Syntax,2023.2.3,MacIntel,58.82352941,,,,,363.123,365.12,o,1,365.121,365.121,,0,,,365.121,365.122,,,,365.122,365.122,,0,72,72,72,1,cvmt/test_items/t73.jpeg,o,0.931,,,,,,,,,,,,,,,,,,,,,,,,,
,,118565,132,1,2024-03-13_00h32.11.208,Memory and Syntax,2023.2.3,MacIntel,58.82352941,,,,,365.122,367.12,,0,367.12,367.92,n,0,0.783,,367.92,367.921,,,,367.921,367.922,,0,73,73,73,1,cvmt/test_items/t74.jpeg,o,,,,,,,,,,,,,,,,,,,,,,,,,,
,,118565,132,1,2024-03-13_00h32.11.208,Memory and Syntax,2023.2.3,MacIntel,58.82352941,,,,,367.922,369.92,n,0,369.92,369.921,,0,,,369.921,369.921,,,,369.921,369.922,,0,74,74,74,1,cvmt/test_items/t75.jpeg,o,0.8,,,,,,,,,,,,,,,,,,,,,,,,,
,,118565,132,1,2024-03-13_00h32.11.208,Memory and Syntax,2023.2.3,MacIntel,58.82352941,,,,,369.922,371.92,o,1,371.92,371.921,,0,,,371.921,371.921,,,,371.921,371.922,,0,75,75,75,1,cvmt/test_items/t76.jpeg,o,0.997,,,,,,,,,,,,,,,,,,,,,,,,,
,,118565,132,1,2024-03-13_00h32.11.208,Memory and Syntax,2023.2.3,MacIntel,58.82352941,,,,,371.922,373.92,n,0,373.921,373.921,,0,,,373.921,373.922,,,,373.922,373.922,,0,76,76,76,1,cvmt/test_items/t77.jpeg,o,0.475,,,,,,,,,,,,,,,,,,,,,,,,,
,,118565,132,1,2024-03-13_00h32.11.208,Memory and Syntax,2023.2.3,MacIntel,58.82352941,,,,,373.922,375.92,o,1,375.92,375.92,,0,,,375.92,375.921,,,,375.921,375.921,,0,77,77,77,1,cvmt/test_items/t78.jpeg,o,0.882,,,,,,,,,,,,,,,,,,,,,,,,,
,,118565,132,1,2024-03-13_00h32.11.208,Memory and Syntax,2023.2.3,MacIntel,58.82352941,,,,,375.921,377.92,n,0,377.921,377.921,,0,,,377.921,377.921,,,,377.921,377.922,,0,78,78,78,1,cvmt/test_items/t79.jpeg,o,0.997,,,,,,,,,,,,,,,,,,,,,,,,,
,,118565,132,1,2024-03-13_00h32.11.208,Memory and Syntax,2023.2.3,MacIntel,58.82352941,,,,,377.922,379.921,n,1,379.921,379.921,,0,,,379.921,379.922,,,,379.922,379.922,,0,79,79,79,1,cvmt/test_items/t80.jpeg,n,1.396,,,,,,,,,,,,,,,,,,,,,,,,,
,,118565,132,1,2024-03-13_00h32.11.208,Memory and Syntax,2023.2.3,MacIntel,58.82352941,,,,,379.922,381.921,n,0,381.921,381.921,,0,,,381.922,381.922,,,,381.922,381.923,,0,80,80,80,1,cvmt/test_items/t81.jpeg,o,0.829,,,,,,,,,,,,,,,,,,,,,,,,,
,,118565,132,1,2024-03-13_00h32.11.208,Memory and Syntax,2023.2.3,MacIntel,58.82352941,,,,,381.923,383.92,o,1,383.92,383.921,,0,,,383.921,383.921,,,,383.921,383.921,,0,81,81,81,1,cvmt/test_items/t82.jpeg,o,0.833,,,,,,,,,,,,,,,,,,,,,,,,,
,,118565,132,1,2024-03-13_00h32.11.208,Memory and Syntax,2023.2.3,MacIntel,58.82352941,,,,,383.922,385.92,n,0,385.92,385.92,,0,,,385.92,385.921,,,,385.921,385.921,,0,82,82,82,1,cvmt/test_items/t83.jpeg,o,0.63,,,,,,,,,,,,,,,,,,,,,,,,,
,,118565,132,1,2024-03-13_00h32.11.208,Memory and Syntax,2023.2.3,MacIntel,58.82352941,,,,,385.922,387.919,o,1,387.919,387.92,,0,,,387.92,387.92,,,,387.92,387.921,,0,83,83,83,1,cvmt/test_items/t84.jpeg,o,0.976,,,,,,,,,,,,,,,,,,,,,,,,,
,,118565,132,1,2024-03-13_00h32.11.208,Memory and Syntax,2023.2.3,MacIntel,58.82352941,,,,,387.921,389.92,n,0,389.92,389.92,,0,,,389.92,389.921,,,,389.921,389.921,,0,84,84,84,1,cvmt/test_items/t85.jpeg,o,0.78,,,,,,,,,,,,,,,,,,,,,,,,,
,,118565,132,1,2024-03-13_00h32.11.208,Memory and Syntax,2023.2.3,MacIntel,58.82352941,,,,,389.921,391.92,o,1,391.92,391.921,,0,,,391.921,391.921,,,,391.921,391.922,,0,85,85,85,1,cvmt/test_items/t86.jpeg,o,0.862,,,,,,,,,,,,,,,,,,,,,,,,,
,,118565,132,1,2024-03-13_00h32.11.208,Memory and Syntax,2023.2.3,MacIntel,58.82352941,,,,,391.922,393.92,o,1,393.92,393.921,,0,,,393.921,393.921,,,,393.921,393.921,,0,86,86,86,1,cvmt/test_items/t87.jpeg,o,1.067,,,,,,,,,,,,,,,,,,,,,,,,,
,,118565,132,1,2024-03-13_00h32.11.208,Memory and Syntax,2023.2.3,MacIntel,58.82352941,,,,,393.922,395.92,o,0,395.92,395.92,,0,,,395.92,395.92,,,,395.92,395.921,,0,87,87,87,1,cvmt/test_items/t88.jpeg,n,0.712,,,,,,,,,,,,,,,,,,,,,,,,,
,,118565,132,1,2024-03-13_00h32.11.208,Memory and Syntax,2023.2.3,MacIntel,58.82352941,,,,,395.921,397.92,n,1,397.92,397.921,,0,,,397.921,397.922,,,,397.922,397.922,,0,88,88,88,1,cvmt/test_items/t89.jpeg,n,0.685,,,,,,,,,,,,,,,,,,,,,,,,,
,,118565,132,1,2024-03-13_00h32.11.208,Memory and Syntax,2023.2.3,MacIntel,58.82352941,,,,,397.922,399.92,o,1,399.92,399.921,,0,,,399.921,399.921,,,,399.921,399.922,,0,89,89,89,1,cvmt/test_items/t90.jpeg,o,1.22,,,,,,,,,,,,,,,,,,,,,,,,,
,,118565,132,1,2024-03-13_00h32.11.208,Memory and Syntax,2023.2.3,MacIntel,58.82352941,,,,,399.922,401.92,o,1,401.92,401.921,,0,,,401.921,401.921,,,,401.921,401.921,,0,90,90,90,1,cvmt/test_items/t91.jpeg,o,0.834,,,,,,,,,,,,,,,,,,,,,,,,,
,,118565,132,1,2024-03-13_00h32.11.208,Memory and Syntax,2023.2.3,MacIntel,58.82352941,,,,,401.922,403.92,o,1,403.92,403.921,,0,,,403.921,403.921,,,,403.921,403.922,,0,91,91,91,1,cvmt/test_items/t92.jpeg,o,0.998,,,,,,,,,,,,,,,,,,,,,,,,,
,,118565,132,1,2024-03-13_00h32.11.208,Memory and Syntax,2023.2.3,MacIntel,58.82352941,,,,,403.922,405.92,n,0,405.92,405.921,,0,,,405.921,405.921,,,,405.921,405.921,,0,92,92,92,1,cvmt/test_items/t93.jpeg,o,0.001,,,,,,,,,,,,,,,,,,,,,,,,,
,,118565,132,1,2024-03-13_00h32.11.208,Memory and Syntax,2023.2.3,MacIntel,58.82352941,,,,,405.922,407.92,n,0,407.92,407.921,,0,,,407.921,407.921,,,,407.921,407.921,,0,93,93,93,1,cvmt/test_items/t94.jpeg,o,1.584,,,,,,,,,,,,,,,,,,,,,,,,,
,,118565,132,1,2024-03-13_00h32.11.208,Memory and Syntax,2023.2.3,MacIntel,58.82352941,,,,,407.922,409.92,n,0,409.92,409.921,,0,,,409.921,409.922,,,,409.922,409.922,,0,94,94,94,1,cvmt/test_items/t95.jpeg,o,0.999,,,,,,,,,,,,,,,,,,,,,,,,,
,,118565,132,1,2024-03-13_00h32.11.208,Memory and Syntax,2023.2.3,MacIntel,58.82352941,,,,,409.922,411.92,,0,411.921,414.62,o,1,2.691,,414.62,414.621,,,,414.621,414.621,,0,95,95,95,1,cvmt/test_items/t96.jpeg,o,,,,,,,,,,,,,,,,,,,,,,,,,,
,,118565,132,1,2024-03-13_00h32.11.208,Memory and Syntax,2023.2.3,MacIntel,58.82352941,,,,,414.622,416.62,o,1,416.62,416.621,,0,,,416.621,416.622,,,,416.622,416.622,,0,96,96,96,1,cvmt/test_items/t97.jpeg,o,1.07,,,,,,,,,,,,,,,,,,,,,,,,,
,,118565,132,1,2024-03-13_00h32.11.208,Memory and Syntax,2023.2.3,MacIntel,58.82352941,,,,,416.622,418.62,n,1,418.62,418.621,,0,,,418.621,418.621,,,,418.621,418.621,,0,97,97,97,1,cvmt/test_items/t98.jpeg,n,0.781,,,,,,,,,,,,,,,,,,,,,,,,,
,,118565,132,1,2024-03-13_00h32.11.208,Memory and Syntax,2023.2.3,MacIntel,58.82352941,,,,,418.622,420.62,n,0,420.62,420.621,,0,,,420.621,420.621,,,,420.621,420.622,,0,98,98,98,1,cvmt/test_items/t99.jpeg,o,1.455,,,,,,,,,,,,,,,,,,,,,,,,,
,,118565,132,1,2024-03-13_00h32.11.208,Memory and Syntax,2023.2.3,MacIntel,58.82352941,,,,,420.622,422.62,o,1,422.62,422.621,,0,,,422.621,422.621,,,,422.621,422.622,,0,99,99,99,1,cvmt/test_items/t100.jpeg,o,1.11,,,,,,,,,,,,,,,,,,,,,,,,,
,,118565,132,1,2024-03-13_00h32.11.208,Memory and Syntax,2023.2.3,MacIntel,58.82352941,,,,,422.622,424.62,n,0,424.62,424.62,,0,,,424.62,424.621,,,,424.621,424.621,,0,100,100,100,1,cvmt/test_items/t101.jpeg,o,1.516,,,,,,,,,,,,,,,,,,,,,,,,,
,,118565,132,1,2024-03-13_00h32.11.208,Memory and Syntax,2023.2.3,MacIntel,58.82352941,,,,,424.621,426.62,,0,426.62,428.253,o,1,1.621,,428.253,428.254,,,,428.254,428.254,,0,101,101,101,1,cvmt/test_items/t102.jpeg,o,,,,,,,,,,,,,,,,,,,,,,,,,,
,,118565,132,1,2024-03-13_00h32.11.208,Memory and Syntax,2023.2.3,MacIntel,58.82352941,,,,,428.255,430.253,n,0,430.253,430.254,,0,,,430.254,430.254,,,,430.254,430.255,,0,102,102,102,1,cvmt/test_items/t103.jpeg,o,1.033,,,,,,,,,,,,,,,,,,,,,,,,,
,,118565,132,1,2024-03-13_00h32.11.208,Memory and Syntax,2023.2.3,MacIntel,58.82352941,,,,,430.255,432.254,o,1,432.254,432.254,,0,,,432.255,432.255,,,,432.255,432.255,,0,103,103,103,1,cvmt/test_items/t104.jpeg,o,1.83,,,,,,,,,,,,,,,,,,,,,,,,,
,,118565,132,1,2024-03-13_00h32.11.208,Memory and Syntax,2023.2.3,MacIntel,58.82352941,,,,,432.256,434.253,n,1,434.254,434.254,,0,,,434.254,434.255,,,,434.255,434.255,,0,104,104,104,1,cvmt/test_items/t105.jpeg,n,0.795,,,,,,,,,,,,,,,,,,,,,,,,,
,,118565,132,1,2024-03-13_00h32.11.208,Memory and Syntax,2023.2.3,MacIntel,58.82352941,,,,,434.255,436.253,,0,436.253,436.77,o,1,0.5,,436.77,436.77,,,,436.77,436.771,,0,105,105,105,1,cvmt/test_items/t106.jpeg,o,,,,,,,,,,,,,,,,,,,,,,,,,,
,,118565,132,1,2024-03-13_00h32.11.208,Memory and Syntax,2023.2.3,MacIntel,58.82352941,,,,,436.771,438.77,o,1,438.77,438.771,,0,,,438.771,438.771,,,,438.771,438.771,,0,106,106,106,1,cvmt/test_items/t107.jpeg,o,1.348,,,,,,,,,,,,,,,,,,,,,,,,,
,,118565,132,1,2024-03-13_00h32.11.208,Memory and Syntax,2023.2.3,MacIntel,58.82352941,,,,,438.772,440.77,n,0,440.77,440.771,,0,,,440.771,440.771,,,,440.771,440.771,,0,107,107,107,1,cvmt/test_items/t108.jpeg,o,1.386,,,,,,,,,,,,,,,,,,,,,,,,,
,,118565,132,1,2024-03-13_00h32.11.208,Memory and Syntax,2023.2.3,MacIntel,58.82352941,,,,,440.772,442.77,n,0,442.77,442.77,,0,,,442.77,442.771,,,,442.771,442.771,,0,108,108,108,1,cvmt/test_items/t109.jpeg,o,1.064,,,,,,,,,,,,,,,,,,,,,,,,,
,,118565,132,1,2024-03-13_00h32.11.208,Memory and Syntax,2023.2.3,MacIntel,58.82352941,,,,,442.771,444.77,o,1,444.77,444.77,,0,,,444.77,444.771,,,,444.771,444.771,,0,109,109,109,1,cvmt/test_items/t110.jpeg,o,1.899,,,,,,,,,,,,,,,,,,,,,,,,,
,,118565,132,1,2024-03-13_00h32.11.208,Memory and Syntax,2023.2.3,MacIntel,58.82352941,,,,,444.772,446.77,o,1,446.77,447.57,n,0,0.786,,447.57,447.571,,,,447.571,447.571,,0,110,110,110,1,cvmt/test_items/t111.jpeg,o,0.748,,,,,,,,,,,,,,,,,,,,,,,,,
,,118565,132,1,2024-03-13_00h32.11.208,Memory and Syntax,2023.2.3,MacIntel,58.82352941,,,,,447.571,449.57,n,0,449.57,449.571,,0,,,449.571,449.571,,,,449.571,449.571,,0,111,111,111,1,cvmt/test_items/t112.jpeg,o,1.497,,,,,,,,,,,,,,,,,,,,,,,,,
,,118565,132,1,2024-03-13_00h32.11.208,Memory and Syntax,2023.2.3,MacIntel,58.82352941,,,,,449.572,451.57,n,1,451.57,451.57,,0,,,451.57,451.571,,,,451.571,451.571,,0,112,112,112,1,cvmt/test_items/t113.jpeg,n,0.873,,,,,,,,,,,,,,,,,,,,,,,,,
,,118565,132,1,2024-03-13_00h32.11.208,Memory and Syntax,2023.2.3,MacIntel,58.82352941,,,,,451.572,453.57,n,0,453.57,453.57,,0,,,453.57,453.571,,,,453.571,453.571,,0,113,113,113,1,cvmt/test_items/t114.jpeg,o,0.96,,,,,,,,,,,,,,,,,,,,,,,,,
,,118565,132,1,2024-03-13_00h32.11.208,Memory and Syntax,2023.2.3,MacIntel,58.82352941,,,,,453.572,455.57,o,1,455.57,455.571,,0,,,455.571,455.571,,,,455.571,455.571,,0,114,114,114,1,cvmt/test_items/t115.jpeg,o,0.986,,,,,,,,,,,,,,,,,,,,,,,,,
,,118565,132,1,2024-03-13_00h32.11.208,Memory and Syntax,2023.2.3,MacIntel,58.82352941,,,,,455.572,457.57,n,0,457.57,457.57,,0,,,457.57,457.57,,,,457.57,457.571,,0,115,115,115,1,cvmt/test_items/t116.jpeg,o,0.795,,,,,,,,,,,,,,,,,,,,,,,,,
,,118565,132,1,2024-03-13_00h32.11.208,Memory and Syntax,2023.2.3,MacIntel,58.82352941,,,,,457.571,459.57,o,1,459.57,459.57,,0,,,459.57,459.571,,,,459.571,459.571,,0,116,116,116,1,cvmt/test_items/t117.jpeg,o,1.101,,,,,,,,,,,,,,,,,,,,,,,,,
,,118565,132,1,2024-03-13_00h32.11.208,Memory and Syntax,2023.2.3,MacIntel,58.82352941,,,,,459.572,461.57,,0,461.57,462.553,n,0,0.967,,462.553,462.554,,,,462.554,462.554,,0,117,117,117,1,cvmt/test_items/t118.jpeg,o,,,,,,,,,,,,,,,,,,,,,,,,,,
,,118565,132,1,2024-03-13_00h32.11.208,Memory and Syntax,2023.2.3,MacIntel,58.82352941,,,,,462.555,464.553,n,0,464.553,464.554,,0,,,464.554,464.554,,,,464.554,464.554,,0,118,118,118,1,cvmt/test_items/t119.jpeg,o,1.005,,,,,,,,,,,,,,,,,,,,,,,,,
,,118565,132,1,2024-03-13_00h32.11.208,Memory and Syntax,2023.2.3,MacIntel,58.82352941,,,,,464.555,466.553,o,1,466.554,466.554,,0,,,466.554,466.555,,,,466.555,466.555,,0,119,119,119,1,cvmt/test_items/t120.jpeg,o,1.117,,,,,,,,,,,,,,,,,,,,,,,,,
,,118565,132,1,2024-03-13_00h32.11.208,Memory and Syntax,2023.2.3,MacIntel,58.82352941,,,,,466.556,468.553,n,0,468.553,468.554,,0,,,468.554,468.555,,,,468.555,468.555,,0,120,120,120,1,cvmt/test_items/t121.jpeg,o,0.614,,,,,,,,,,,,,,,,,,,,,,,,,
,,118565,132,1,2024-03-13_00h32.11.208,Memory and Syntax,2023.2.3,MacIntel,58.82352941,,,,,468.556,470.553,n,0,470.553,470.554,,0,,,470.554,470.554,,,,470.554,470.555,,0,121,121,121,1,cvmt/test_items/t122.jpeg,o,1.469,,,,,,,,,,,,,,,,,,,,,,,,,
,,118565,132,1,2024-03-13_00h32.11.208,Memory and Syntax,2023.2.3,MacIntel,58.82352941,,,,,470.555,472.553,n,1,472.553,472.554,,0,,,472.554,472.554,,,,472.554,472.554,,0,122,122,122,1,cvmt/test_items/t123.jpeg,n,1.468,,,,,,,,,,,,,,,,,,,,,,,,,
,,118565,132,1,2024-03-13_00h32.11.208,Memory and Syntax,2023.2.3,MacIntel,58.82352941,,,,,472.555,474.554,o,1,474.554,474.555,,0,,,474.555,474.555,,,,474.555,474.555,,0,123,123,123,1,cvmt/test_items/t124.jpeg,o,1.237,,,,,,,,,,,,,,,,,,,,,,,,,
,,118565,132,1,2024-03-13_00h32.11.208,Memory and Syntax,2023.2.3,MacIntel,58.82352941,,,,,474.556,476.553,n,0,476.553,476.553,,0,,,476.553,476.554,,,,476.554,476.554,,0,124,124,124,1,cvmt/test_items/t125.jpeg,o,1.384,,,,,,,,,,,,,,,,,,,,,,,,,
,,118565,132,1,2024-03-13_00h32.11.208,Memory and Syntax,2023.2.3,MacIntel,58.82352941,,,,,476.554,478.553,n,0,478.553,478.554,,0,,,478.554,478.554,,,,478.554,478.555,,0,125,125,125,1,cvmt/test_items/t126.jpeg,o,1.506,,,,,,,,,,,,,,,,,,,,,,,,,
,,118565,132,1,2024-03-13_00h32.11.208,Memory and Syntax,2023.2.3,MacIntel,58.82352941,,,,,478.555,480.553,n,0,480.553,480.554,,0,,,480.554,480.554,,,,480.554,480.555,,0,126,126,126,1,cvmt/test_items/t127.jpeg,o,0.739,,,,,,,,,,,,,,,,,,,,,,,,,
,,118565,132,1,2024-03-13_00h32.11.208,Memory and Syntax,2023.2.3,MacIntel,58.82352941,,,,,480.555,482.553,o,1,482.554,482.554,,0,,,482.554,482.554,,,,482.554,482.555,,0,127,127,127,1,cvmt/test_items/t128.jpeg,o,0.836,,,,,,,,,,,,,,,,,,,,,,,,,
,,118565,132,1,2024-03-13_00h32.11.208,Memory and Syntax,2023.2.3,MacIntel,58.82352941,,,,,482.555,484.553,n,0,484.554,484.554,,0,,,484.554,484.555,,,,484.555,484.555,,0,128,128,128,1,cvmt/test_items/t129.jpeg,o,0.672,,,,,,,,,,,,,,,,,,,,,,,,,
,,118565,132,1,2024-03-13_00h32.11.208,Memory and Syntax,2023.2.3,MacIntel,58.82352941,,,,,484.556,486.553,n,0,486.553,486.554,,0,,,486.554,486.554,,,,486.554,486.555,,0,129,129,129,1,cvmt/test_items/t130.jpeg,o,1.1,,,,,,,,,,,,,,,,,,,,,,,,,
,,118565,132,1,2024-03-13_00h32.11.208,Memory and Syntax,2023.2.3,MacIntel,58.82352941,,,,,486.555,488.553,n,1,488.553,488.553,,0,,,488.553,488.554,,,,488.554,488.554,,0,130,130,130,1,cvmt/test_items/t131.jpeg,n,0.683,,,,,,,,,,,,,,,,,,,,,,,,,
,,118565,132,1,2024-03-13_00h32.11.208,Memory and Syntax,2023.2.3,MacIntel,58.82352941,,,,,488.555,490.553,,0,490.553,491.303,n,0,0.734,,491.303,491.304,,,,491.304,491.304,,0,131,131,131,1,cvmt/test_items/t132.jpeg,o,,,,,,,,,,,,,,,,,,,,,,,,,,
,,118565,132,1,2024-03-13_00h32.11.208,Memory and Syntax,2023.2.3,MacIntel,58.82352941,,,,,491.305,493.303,o,1,493.303,493.303,,0,,,493.303,493.304,,,,493.304,493.304,,0,132,132,132,1,cvmt/test_items/t133.jpeg,o,1.189,,,,,,,,,,,,,,,,,,,,,,,,,
,,118565,132,1,2024-03-13_00h32.11.208,Memory and Syntax,2023.2.3,MacIntel,58.82352941,,,,,493.304,495.303,o,1,495.303,495.303,,0,,,495.303,495.304,,,,495.304,495.304,,0,133,133,133,1,cvmt/test_items/t134.jpeg,o,0.9,,,,,,,,,,,,,,,,,,,,,,,,,
,,118565,132,1,2024-03-13_00h32.11.208,Memory and Syntax,2023.2.3,MacIntel,58.82352941,,,,,495.304,497.302,n,0,497.302,497.303,,0,,,497.303,497.303,,,,497.303,497.303,,0,134,134,134,1,cvmt/test_items/t135.jpeg,o,0.942,,,,,,,,,,,,,,,,,,,,,,,,,
,,118565,132,1,2024-03-13_00h32.11.208,Memory and Syntax,2023.2.3,MacIntel,58.82352941,,,,,,,,,,,,,,,,,,,,,,,,,,,,,,,,,,497.305,497.306,0.001,497.319,508.872,space,9.684,,508.884,513.204,4,4.313,0,0,0,0,1,1,1,WOV,8B,Practiced the virtuoso many pieces.
,,118565,132,1,2024-03-13_00h32.11.208,Memory and Syntax,2023.2.3,MacIntel,58.82352941,,,,,,,,,,,,,,,,,,,,,,,,,,,,,,,,,,,,,,,,,,513.205,516.202,4,2.986,0,1,1,1,1,1,2,AS,6A,The rickety old boat sank.
,,118565,132,1,2024-03-13_00h32.11.208,Memory and Syntax,2023.2.3,MacIntel,58.82352941,,,,,,,,,,,,,,,,,,,,,,,,,,,,,,,,,,,,,,,,,,516.203,527.553,3,11.341,0,2,2,2,1,1,3,WO,6A,The waiter set the table promptly.
,,118565,132,1,2024-03-13_00h32.11.208,Memory and Syntax,2023.2.3,MacIntel,58.82352941,,,,,,,,,,,,,,,,,,,,,,,,,,,,,,,,,,,,,,,,,,527.554,541.22,4,13.652,0,3,3,3,1,1,4,control,12B,They anticipate that everybody you do will contact Megan.
,,118565,132,1,2024-03-13_00h32.11.208,Memory and Syntax,2023.2.3,MacIntel,58.82352941,,,,,,,,,,,,,,,,,,,,,,,,,,,,,,,,,,,,,,,,,,541.221,544.953,5,3.723,0,4,4,4,1,1,5,ASV,11B,The cat moved himself away.
,,118565,132,1,2024-03-13_00h32.11.208,Memory and Syntax,2023.2.3,MacIntel,58.82352941,,,,,,,,,,,,,,,,,,,,,,,,,,,,,,,,,,,,,,,,,,544.954,550.153,2,5.193,0,5,5,5,1,1,6,ASV,7B,She laughed herself at the dog.
,,118565,132,1,2024-03-13_00h32.11.208,Memory and Syntax,2023.2.3,MacIntel,58.82352941,,,,,,,,,,,,,,,,,,,,,,,,,,,,,,,,,,,,,,,,,,550.153,554.086,2.9,3.92,0,6,6,6,1,1,7,AS,5A,The professor cried about the article.
,,118565,132,1,2024-03-13_00h32.11.208,Memory and Syntax,2023.2.3,MacIntel,58.82352941,,,,,,,,,,,,,,,,,,,,,,,,,,,,,,,,,,,,,,,,,,554.086,557.886,6,3.792,0,7,7,7,1,1,8,WO,5A,My sibling expected a good grade.
,,118565,132,1,2024-03-13_00h32.11.208,Memory and Syntax,2023.2.3,MacIntel,58.82352941,,,,,,,,,,,,,,,,,,,,,,,,,,,,,,,,,,,,,,,,,,557.887,561.886,4,3.992,0,8,8,8,1,1,9,filler,1A,There has been a man considered violent.
,,118565,132,1,2024-03-13_00h32.11.208,Memory and Syntax,2023.2.3,MacIntel,58.82352941,,,,,,,,,,,,,,,,,,,,,,,,,,,,,,,,,,,,,,,,,,561.887,566.803,5,4.908,0,9,9,9,1,1,10,AS,2A,Taylor subscribed to the channel.
,,118565,132,1,2024-03-13_00h32.11.208,Memory and Syntax,2023.2.3,MacIntel,58.82352941,,,,,,,,,,,,,,,,,,,,,,,,,,,,,,,,,,,,,,,,,,566.803,573.853,6.9,7.036,0,10,10,10,1,1,11,control,10B,There might fossils seem to be several miles underground.
,,118565,132,1,2024-03-13_00h32.11.208,Memory and Syntax,2023.2.3,MacIntel,58.82352941,,,,,,,,,,,,,,,,,,,,,,,,,,,,,,,,,,,,,,,,,,573.854,580.069,7,6.206,0,11,11,11,1,1,12,ASV,8B,Esperanza sighed herself at the desk.
,,118565,132,1,2024-03-13_00h32.11.208,Memory and Syntax,2023.2.3,MacIntel,58.82352941,,,,,,,,,,,,,,,,,,,,,,,,,,,,,,,,,,,,,,,,,,580.07,584.203,7,4.126,0,12,12,12,1,1,13,WOV,9B,Read we five pages each night.
,,118565,132,1,2024-03-13_00h32.11.208,Memory and Syntax,2023.2.3,MacIntel,58.82352941,,,,,,,,,,,,,,,,,,,,,,,,,,,,,,,,,,,,,,,,,,584.204,588.902,4,4.687,0,13,13,13,1,1,14,WOV,7B,Frightened the eerie sound Seth.
,,118565,132,1,2024-03-13_00h32.11.208,Memory and Syntax,2023.2.3,MacIntel,58.82352941,,,,,,,,,,,,,,,,,,,,,,,,,,,,,,,,,,,,,,,,,,588.902,592.903,4,3.986,0,14,14,14,1,1,15,filler,2A,"Arty is sick, and Mark is too."
,,118565,132,1,2024-03-13_00h32.11.208,Memory and Syntax,2023.2.3,MacIntel,58.82352941,,,,,,,,,,,,,,,,,,,,,,,,,,,,,,,,,,,,,,,,,,592.903,597.786,4,4.87,0,15,15,15,1,1,16,ASV,9B,The prime minister confessed herself to bribery.
,,118565,132,1,2024-03-13_00h32.11.208,Memory and Syntax,2023.2.3,MacIntel,58.82352941,,,,,,,,,,,,,,,,,,,,,,,,,,,,,,,,,,,,,,,,,,597.786,600.569,4,2.77,0,16,16,16,1,1,17,control,7B,Olivia told Gregory when to exonerate herself.
,,118565,132,1,2024-03-13_00h32.11.208,Memory and Syntax,2023.2.3,MacIntel,58.82352941,,,,,,,,,,,,,,,,,,,,,,,,,,,,,,,,,,,,,,,,,,600.57,603.269,4,2.687,0,17,17,17,1,1,18,control,11B,There are likely students to be in the library.
,,118565,132,1,2024-03-13_00h32.11.208,Memory and Syntax,2023.2.3,MacIntel,58.82352941,,,,,,,,,,,,,,,,,,,,,,,,,,,,,,,,,,,,,,,,,,603.27,607.403,4,4.124,0,18,18,18,1,1,19,filler,5A,I told Mandy who would win the election.
,,118565,132,1,2024-03-13_00h32.11.208,Memory and Syntax,2023.2.3,MacIntel,58.82352941,,,,,,,,,,,,,,,,,,,,,,,,,,,,,,,,,,,,,,,,,,607.403,610.185,4,2.772,0,19,19,19,1,1,20,control,9B,We consider there three problems.
,,118565,132,1,2024-03-13_00h32.11.208,Memory and Syntax,2023.2.3,MacIntel,58.82352941,,,,,,,,,,,,,,,,,,,,,,,,,,,,,,,,,,,,,,,,,,610.185,619.103,1,8.911,0,20,20,20,1,1,21,control,8B,She called Victor and yelled at.
,,118565,132,1,2024-03-13_00h32.11.208,Memory and Syntax,2023.2.3,MacIntel,58.82352941,,,,,,,,,,,,,,,,,,,,,,,,,,,,,,,,,,,,,,,,,,619.103,625.219,1,6.103,0,21,21,21,1,1,22,WO,4A,The bully pushed every student.
,,118565,132,1,2024-03-13_00h32.11.208,Memory and Syntax,2023.2.3,MacIntel,58.82352941,,,,,,,,,,,,,,,,,,,,,,,,,,,,,,,,,,,,,,,,,,625.22,632.202,6.9,6.969,0,22,22,22,1,1,23,WO,3A,Miguel baked delicious cupcakes.
,,118565,132,1,2024-03-13_00h32.11.208,Memory and Syntax,2023.2.3,MacIntel,58.82352941,,,,,,,,,,,,,,,,,,,,,,,,,,,,,,,,,,,,,,,,,,632.203,635.069,4,2.858,0,23,23,23,1,1,24,WO,1A,Abby answered the question.
,,118565,132,1,2024-03-13_00h32.11.208,Memory and Syntax,2023.2.3,MacIntel,58.82352941,,,,,,,,,,,,,,,,,,,,,,,,,,,,,,,,,,,,,,,,,,635.07,640.053,4.1,4.973,0,24,24,24,1,1,25,filler,3A,Brittany attempted to touch the porcupine.
,,118565,132,1,2024-03-13_00h32.11.208,Memory and Syntax,2023.2.3,MacIntel,58.82352941,,,,,,,,,,,,,,,,,,,,,,,,,,,,,,,,,,,,,,,,,,640.053,644.336,2,4.269,0,25,25,25,1,1,26,AS,3A,Gracie stayed by the window.
,,118565,132,1,2024-03-13_00h32.11.208,Memory and Syntax,2023.2.3,MacIntel,58.82352941,,,,,,,,,,,,,,,,,,,,,,,,,,,,,,,,,,,,,,,,,,644.337,649.386,5,5.039,0,26,26,26,1,1,27,WOV,11B,Wrote she her boyfriend a poem.
,,118565,132,1,2024-03-13_00h32.11.208,Memory and Syntax,2023.2.3,MacIntel,58.82352941,,,,,,,,,,,,,,,,,,,,,,,,,,,,,,,,,,,,,,,,,,649.387,652.786,6.9,3.392,0,27,27,27,1,1,28,WOV,12B,Watched Lily a movie.
,,118565,132,1,2024-03-13_00h32.11.208,Memory and Syntax,2023.2.3,MacIntel,58.82352941,,,,,,,,,,,,,,,,,,,,,,,,,,,,,,,,,,,,,,,,,,652.787,655.485,6.9,2.686,0,28,28,28,1,1,29,WO,2A,Jackie won the close race.
,,118565,132,1,2024-03-13_00h32.11.208,Memory and Syntax,2023.2.3,MacIntel,58.82352941,,,,,,,,,,,,,,,,,,,,,,,,,,,,,,,,,,,,,,,,,,655.485,660.736,3,5.239,0,29,29,29,1,1,30,AS,4A,Tomas drank from the water pitcher.
,,118565,132,1,2024-03-13_00h32.11.208,Memory and Syntax,2023.2.3,MacIntel,58.82352941,,,,,,,,,,,,,,,,,,,,,,,,,,,,,,,,,,,,,,,,,,660.736,665.836,3,5.085,0,30,30,30,1,1,31,WOV,10B,Kissed Kareem his boyfriend.
,,118565,132,1,2024-03-13_00h32.11.208,Memory and Syntax,2023.2.3,MacIntel,58.82352941,,,,,,,,,,,,,,,,,,,,,,,,,,,,,,,,,,,,,,,,,,665.836,669.019,4,3.169,0,31,31,31,1,1,32,ASV,10B,The children quieted themselves.
,,118565,132,1,2024-03-13_00h32.11.208,Memory and Syntax,2023.2.3,MacIntel,58.82352941,,,,,,,,,,,,,,,,,,,,,,,,,,,,,,,,,,,,,,,,,,669.02,678.336,4,9.303,0,32,32,32,1,1,33,AS,1A,They fidgeted in their chairs.
,,118565,132,1,2024-03-13_00h32.11.208,Memory and Syntax,2023.2.3,MacIntel,58.82352941,,,,,,,,,,,,,,,,,,,,,,,,,,,,,,,,,,,,,,,,,,678.337,680.869,4,2.519,0,33,33,33,1,1,34,filler,4A,It seems to him that Kim solved the problem.
,,118565,132,1,2024-03-13_00h32.11.208,Memory and Syntax,2023.2.3,MacIntel,58.82352941,,,,,,,,,,,,,,,,,,,,,,,,,,,,,,,,,,,,,,,,,,680.87,683.486,4,2.603,0,34,34,34,1,1,35,ASV,12B,The swimmers shaved themselves.