word,img,sentence,s2_sentPrax_C,s2_sentPrax_P,s4_sentPrax_C,s4_sentPrax_P,s5_sentPrax_C,s5_sentPrax_P,s6_sentPrax_C,s6_sentPrax_P,target,foils,Session1.thisRepN,Session1.thisTrialN,Session1.thisN,Session1.thisIndex,Session2.thisRepN,Session2.thisTrialN,Session2.thisN,Session2.thisIndex,S2_engAJT_block.thisRepN,S2_engAJT_block.thisTrialN,S2_engAJT_block.thisN,S2_engAJT_block.thisIndex,S2_vocabPhase.thisRepN,S2_vocabPhase.thisTrialN,S2_vocabPhase.thisN,S2_vocabPhase.thisIndex,S2_vocabRep.thisRepN,S2_vocabRep.thisTrialN,S2_vocabRep.thisN,S2_vocabRep.thisIndex,S2_vocabLearnTrials.thisRepN,S2_vocabLearnTrials.thisTrialN,S2_vocabLearnTrials.thisN,S2_vocabLearnTrials.thisIndex,S2_vocabTestTrials.thisRepN,S2_vocabTestTrials.thisTrialN,S2_vocabTestTrials.thisN,S2_vocabTestTrials.thisIndex,too_fast_punish.thisRepN,too_fast_punish.thisTrialN,too_fast_punish.thisN,too_fast_punish.thisIndex,S2_sentLearnTrials.thisRepN,S2_sentLearnTrials.thisTrialN,S2_sentLearnTrials.thisN,S2_sentLearnTrials.thisIndex,S2_sentPraxPhase.thisRepN,S2_sentPraxPhase.thisTrialN,S2_sentPraxPhase.thisN,S2_sentPraxPhase.thisIndex,S2_sentPraxC_block.thisRepN,S2_sentPraxC_block.thisTrialN,S2_sentPraxC_block.thisN,S2_sentPraxC_block.thisIndex,S2_sentPraxC_trials.thisRepN,S2_sentPraxC_trials.thisTrialN,S2_sentPraxC_trials.thisN,S2_sentPraxC_trials.thisIndex,too_fast_punish2.thisRepN,too_fast_punish2.thisTrialN,too_fast_punish2.thisN,too_fast_punish2.thisIndex,S2_sentPraxP_block.thisRepN,S2_sentPraxP_block.thisTrialN,S2_sentPraxP_block.thisN,S2_sentPraxP_block.thisIndex,S2_sentPraxP_trials.thisRepN,S2_sentPraxP_trials.thisTrialN,S2_sentPraxP_trials.thisN,S2_sentPraxP_trials.thisIndex,brocanto_story.started,start_brocanto.started,vocab_learn_begin.started,vocab_text.started,key_resp.started,vocab_image.started,S2_vrepeat.started,S2_vrepeat_key_resp.started,S2_vrepeat_key_resp.keys,S2_vrepeat_key_resp.rt,vtest_instr_text.started,vtest_begin.started,answerbox.started,S2_vocabTest_resp,S2_vocabTest_rts,S2_vtest_key_resp.started,S2_vtest_text.started,S2_vtest_img.started,S2_vtest_key_resp.keys,S2_vtest_key_resp.rt,S2_vtest_fb.started,S2_vtest_eval.started,S2_v_phase_end.started,S2_v_phase_end.keys,S2_v_phase_end.rt,sent_learn_instr_text.started,sent_learn_begin.started,sent_learn_img.started,sent_text.started,sent_prax_instr_text.started,sent_prax_begin.started,sentPrax_C_instr_text.started,comp_target1.started,comp_target2.started,comp_target3.started,comp_target4.started,sentPrax_C_begin.started,blankITI.started,sentPrax_trg_sent.started,blankITI.stopped,sentPrax_trg_sent.stopped,top_left_img.started,top_right_img.started,bott_left_img.started,bott_right_img.started,target1.started,target2.started,target3.started,target4.started,sentPrax_trg_sent_2.started,S2_sentPrax_C_resp.started,S2_sentPrax_C_resp.keys,S2_sentPrax_C_resp.corr,S2_sentPrax_C_resp.rt,sentPrax_C_fb.started,sentPrax_score_update.started,sentPrax_P_instr_text.started,sentPrax_P_begin.started,blankITI_2.started,sent_Prax_P_img.started,blankITI_2.stopped,sent_Prax_P_img.stopped,participant,session,date,expName,psychopyVersion,frameRate,
lu blom,brocanto/stims/to_use/firefighter3.jpg,,,,,,,,,,,,,,,,0,0,0,0,,,,,0,0,0,0,0,0,0,0,0,0,0,2,,,,,,,,,,,,,,,,,,,,,,,,,,,,,,,,,,,,,10.614459999997052,10.614459999997052,11.311897599996882,11.769716900002095,11.769716900002095,11.769716900002095,,,,,,,,,,,,,,,,,,,,,,,,,,,,,,,,,,,,,,,,,,,,,,,,,,,,,,,,,1,2,2023-02-20_17h57.39.072,Memory and Syntax,2022.2.5,71.82839908010429,
lu neimo,brocanto/stims/to_use/pilot3.jpg,,,,,,,,,,,,,,,,0,0,0,0,,,,,0,0,0,0,0,0,0,0,0,1,1,5,,,,,,,,,,,,,,,,,,,,,,,,,,,,,,,,,,,,,,,,12.166973999992479,12.166973999992479,12.166973999992479,,,,,,,,,,,,,,,,,,,,,,,,,,,,,,,,,,,,,,,,,,,,,,,,,,,,,,,,,1,2,2023-02-20_17h57.39.072,Memory and Syntax,2022.2.5,71.82839908010429,
lu pleck,brocanto/stims/to_use/mechanic1.jpg,,,,,,,,,,,,,,,,0,0,0,0,,,,,0,0,0,0,0,0,0,0,0,2,2,0,,,,,,,,,,,,,,,,,,,,,,,,,,,,,,,,,,,,,,,,12.410790199995972,12.410790199995972,12.410790199995972,,,,,,,,,,,,,,,,,,,,,,,,,,,,,,,,,,,,,,,,,,,,,,,,,,,,,,,,,1,2,2023-02-20_17h57.39.072,Memory and Syntax,2022.2.5,71.82839908010429,
lu neep,brocanto/stims/to_use/doctor2.png,,,,,,,,,,,,,,,,0,0,0,0,,,,,0,0,0,0,0,0,0,0,0,3,3,1,,,,,,,,,,,,,,,,,,,,,,,,,,,,,,,,,,,,,,,,12.608111399997142,12.608111399997142,12.608111399997142,,,,,,,,,,,,,,,,,,,,,,,,,,,,,,,,,,,,,,,,,,,,,,,,,,,,,,,,,1,2,2023-02-20_17h57.39.072,Memory and Syntax,2022.2.5,71.82839908010429,
lu vode,brocanto/stims/to_use/chef1.jpg,,,,,,,,,,,,,,,,0,0,0,0,,,,,0,0,0,0,0,0,0,0,0,4,4,3,,,,,,,,,,,,,,,,,,,,,,,,,,,,,,,,,,,,,,,,12.794122399995103,12.794122399995103,12.794122399995103,,,,,,,,,,,,,,,,,,,,,,,,,,,,,,,,,,,,,,,,,,,,,,,,,,,,,,,,,1,2,2023-02-20_17h57.39.072,Memory and Syntax,2022.2.5,71.82839908010429,
lu troise,brocanto/stims/to_use/janitor2.jpg,,,,,,,,,,,,,,,,0,0,0,0,,,,,0,0,0,0,0,0,0,0,0,5,5,4,,,,,,,,,,,,,,,,,,,,,,,,,,,,,,,,,,,,,,,,12.965872100001434,12.965872100001434,12.965872100001434,,,,,,,,,,,,,,,,,,,,,,,,,,,,,,,,,,,,,,,,,,,,,,,,,,,,,,,,,1,2,2023-02-20_17h57.39.072,Memory and Syntax,2022.2.5,71.82839908010429,
lu troise,brocanto/stims/to_use/janitor2.jpg,,,,,,,,,,,,,,,,0,0,0,0,,,,,0,0,0,0,0,0,0,0,1,0,6,4,,,,,,,,,,,,,,,,,,,,,,,,,,,,,,,,,,,,,,,,13.147986299998593,13.147986299998593,13.147986299998593,,,,,,,,,,,,,,,,,,,,,,,,,,,,,,,,,,,,,,,,,,,,,,,,,,,,,,,,,1,2,2023-02-20_17h57.39.072,Memory and Syntax,2022.2.5,71.82839908010429,
lu neimo,brocanto/stims/to_use/pilot3.jpg,,,,,,,,,,,,,,,,0,0,0,0,,,,,0,0,0,0,0,0,0,0,1,1,7,5,,,,,,,,,,,,,,,,,,,,,,,,,,,,,,,,,,,,,,,,13.493288099998608,13.493288099998608,13.493288099998608,,,,,,,,,,,,,,,,,,,,,,,,,,,,,,,,,,,,,,,,,,,,,,,,,,,,,,,,,1,2,2023-02-20_17h57.39.072,Memory and Syntax,2022.2.5,71.82839908010429,
lu neep,brocanto/stims/to_use/doctor2.png,,,,,,,,,,,,,,,,0,0,0,0,,,,,0,0,0,0,0,0,0,0,1,2,8,1,,,,,,,,,,,,,,,,,,,,,,,,,,,,,,,,,,,,,,,,14.034708199993474,14.034708199993474,14.034708199993474,,,,,,,,,,,,,,,,,,,,,,,,,,,,,,,,,,,,,,,,,,,,,,,,,,,,,,,,,1,2,2023-02-20_17h57.39.072,Memory and Syntax,2022.2.5,71.82839908010429,
lu vode,brocanto/stims/to_use/chef1.jpg,,,,,,,,,,,,,,,,0,0,0,0,,,,,0,0,0,0,0,0,0,0,1,3,9,3,,,,,,,,,,,,,,,,,,,,,,,,,,,,,,,,,,,,,,,,14.433047600003192,14.433047600003192,14.433047600003192,,,,,,,,,,,,,,,,,,,,,,,,,,,,,,,,,,,,,,,,,,,,,,,,,,,,,,,,,1,2,2023-02-20_17h57.39.072,Memory and Syntax,2022.2.5,71.82839908010429,
lu blom,brocanto/stims/to_use/firefighter3.jpg,,,,,,,,,,,,,,,,0,0,0,0,,,,,0,0,0,0,0,0,0,0,1,4,10,2,,,,,,,,,,,,,,,,,,,,,,,,,,,,,,,,,,,,,,,,14.828499900002498,14.828499900002498,14.828499900002498,,,,,,,,,,,,,,,,,,,,,,,,,,,,,,,,,,,,,,,,,,,,,,,,,,,,,,,,,1,2,2023-02-20_17h57.39.072,Memory and Syntax,2022.2.5,71.82839908010429,
lu pleck,brocanto/stims/to_use/mechanic1.jpg,,,,,,,,,,,,,,,,0,0,0,0,,,,,0,0,0,0,0,0,0,0,1,5,11,0,,,,,,,,,,,,,,,,,,,,,,,,,,,,,,,,,,,,,,,,15.270398299995577,15.270398299995577,15.270398299995577,,,,,,,,,,,,,,,,,,,,,,,,,,,,,,,,,,,,,,,,,,,,,,,,,,,,,,,,,1,2,2023-02-20_17h57.39.072,Memory and Syntax,2022.2.5,71.82839908010429,
lu pleck,brocanto/stims/to_use/mechanic1.jpg,,,,,,,,,,,,,,,,0,0,0,0,,,,,0,0,0,0,,,,,,,,,0,0,0,0,,,,,,,,,,,,,,,,,,,,,,,,,,,,,,,,,,,,,,,15.640119899995625,15.640119899995625,t,1.1845470999978716,16.84979029999522,16.84979029999522,17.488839999990887,lu pleck,"[7.34984299998905, 0.11802360000729095, 7.485868599978858, 0.6100251000170829, 7.568164499971317, 0.6956770000251709, 7.762237299961271, 0.754071700037457, 8.574213299958501]",17.488839999990887,17.488839999990887,17.488839999990887,"['l', 'u', 'space', 'p', 'l', 'e', 'c', 'k', 'return']","[7.34984299998905, 7.467866599996341, 7.603892199986149, 8.09589369999594, 8.1781895999884, 8.263841499996488, 8.457914299986442, 8.516308999998728, 9.328284999995958]",26.844725899994955,,,,,,,,,,,,,,,,,,,,,,,,,,,,,,,,,,,,,,,,,,1,2,2023-02-20_17h57.39.072,Memory and Syntax,2022.2.5,71.82839908010429,
lu neep,brocanto/stims/to_use/doctor2.png,,,,,,,,,,,,,,,,0,0,0,0,,,,,0,0,0,0,,,,,,,,,0,1,1,1,,,,,,,,,,,,,,,,,,,,,,,,,,,,,,,,,,,,,,,,,,,,,27.858823999995366,lu neep,"[2.845877100000507, 1.2700493000011193, 3.06788790000428, 1.5961472999915713, 3.3357355000043754, 1.740168399992399, 3.5297423000010895, 1.9862253000028431, 3.683751399992616, 2.136118800000986, 3.8441013999981806, 2.301894300006097, 4.014231799999834, 3.1278132000006735, 4.152138099991134, 3.2878984000126366, 4.263998699985677, 3.434133400020073, 4.38802869997744, 3.746291100018425]",27.858823999995366,27.858823999995366,27.858823999995366,"['l', 'u', 'u', 'space', 'n', 'e', 'e', 'p', 'backspace', 'backspace', 'backspace', 'backspace', 'backspace', 'backspace', 'u', 'space', 'n', 'e', 'e', 'p', 'return']","[2.845877100000507, 3.0441466000047512, 4.1159264000016265, 4.337937200005399, 4.664035199995851, 4.931882799995947, 5.075903899996774, 5.269910699993488, 5.515967600003933, 5.669976699995459, 5.819870199993602, 5.980220199999167, 6.145995700004278, 6.316126100005931, 7.142045000000508, 7.279951299991808, 7.440036500003771, 7.551897099998314, 7.6981321000057505, 7.822162099997513, 8.134319799995865]",36.0140698000032,,,,,,,,,,,,,,,,,,,,,,,,,,,,,,,,,,,,,,,,,,1,2,2023-02-20_17h57.39.072,Memory and Syntax,2022.2.5,71.82839908010429,
lu blom,brocanto/stims/to_use/firefighter3.jpg,,,,,,,,,,,,,,,,0,0,0,0,,,,,0,0,0,0,,,,,,,,,0,2,2,2,,,,,,,,,,,,,,,,,,,,,,,,,,,,,,,,,,,,,,,,,,,,,37.02798800000164,lu blom,"[0.9527143999875989, 0.28233390000241343, 1.1024687999888556, 0.4382989000005182, 1.1983804999908898, 0.6206789999996545, 1.3220843999879435, 1.0248520000022836]",37.02798800000164,37.02798800000164,37.02798800000164,"['l', 'u', 'space', 'b', 'l', 'o', 'm', 'return']","[0.9527143999875989, 1.2350482999900123, 1.384802699991269, 1.5407676999893738, 1.636679399991408, 1.8190594999905443, 1.942763399987598, 2.346936399990227]",39.40258169999288,,,,,,,,,,,,,,,,,,,,,,,,,,,,,,,,,,,,,,,,,,1,2,2023-02-20_17h57.39.072,Memory and Syntax,2022.2.5,71.82839908010429,
lu vode,brocanto/stims/to_use/chef1.jpg,,,,,,,,,,,,,,,,0,0,0,0,,,,,0,0,0,0,,,,,,,,,0,3,3,3,,,,,,,,,,,,,,,,,,,,,,,,,,,,,,,,,,,,,,,,,,,,,40.41649589998997,lu vode,"[0.9042378000012832, 0.2880516000004718, 1.5422524000023259, 2.501926099997945, 1.660443300002953, 2.5942218999989564, 1.8303051000111736, 2.804361599992262]",40.41649589998997,40.41649589998997,40.41649589998997,"['l', 'u', 'space', 'v', 'o', 'd', 'e', 'return']","[0.9042378000012832, 1.192289400001755, 1.8303040000027977, 4.044178500000271, 4.162369400000898, 4.254665200001909, 4.42452700001013, 4.634666700003436]",45.06931349998922,,,,,,,,,,,,,,,,,,,,,,,,,,,,,,,,,,,,,,,,,,1,2,2023-02-20_17h57.39.072,Memory and Syntax,2022.2.5,71.82839908010429,
lu troise,brocanto/stims/to_use/janitor2.jpg,,,,,,,,,,,,,,,,0,0,0,0,,,,,0,0,0,0,,,,,,,,,0,4,4,4,,,,,,,,,,,,,,,,,,,,,,,,,,,,,,,,,,,,,,,,,,,,,46.08631929999683,lu troise,"[0.8164452000055462, 0.5499189999973169, 1.2308200000115903, 0.9875422999903094, 1.405215800012229, 1.0911588999879314, 1.5633408000139752, 1.1690324999945005, 1.6993889000150375, 1.3831980999966618]",46.08631929999683,46.08631929999683,46.08631929999683,"['l', 'u', 'space', 't', 'r', 'o', 'i', 's', 'e', 'return']","[0.8164452000055462, 1.366364200002863, 1.7807390000089072, 2.2183623000018997, 2.3927581000025384, 2.4963747000001604, 2.6544997000019066, 2.732373300008476, 2.868421400009538, 3.0825870000116993]",49.184134499999345,,,,,,,,,,,,,,,,,,,,,,,,,,,,,,,,,,,,,,,,,,1,2,2023-02-20_17h57.39.072,Memory and Syntax,2022.2.5,71.82839908010429,
lu neimo,brocanto/stims/to_use/pilot3.jpg,,,,,,,,,,,,,,,,0,0,0,0,,,,,0,0,0,0,,,,,,,,,0,5,5,5,,,,,,,,,,,,,,,,,,,,,,,,,,,,,,,,,,,,,,,,,,,,,50.19589899999846,lu neimo,"[0.4368516999966232, 0.5301823999907356, 0.6245452000002842, 0.6382825999899069, 0.7505604000034509, 0.846190399985062, 1.1085549000126775, 1.0622569999832194, 1.4365536000113934, 1.2462829999858513, 1.5545589000103064, 1.4142761999828508, 1.8567168000154197]",50.19589899999846,50.19589899999846,50.19589899999846,"['l', 'u', 'space', 'n', 'e', 'm', 'backspace', 'o', 'backspace', 'i', 'm', 'o', 'return']","[0.4368516999966232, 0.9670340999873588, 1.1547275999910198, 1.2628277999901911, 1.3888429999933578, 1.5967507999885129, 1.9547452999977395, 2.170811899995897, 2.498810599994613, 2.6828365999972448, 2.8008418999961577, 2.968835099993157, 3.2709929999982705]",53.483828399999766,,,,,,,,,,,,,,,,,,,,,,,,,,,,,,,,,,,,,,,,,,1,2,2023-02-20_17h57.39.072,Memory and Syntax,2022.2.5,71.82839908010429,
lu pleck,brocanto/stims/to_use/mechanic1.jpg,,,,,,,,,,,,,,,,0,0,0,0,,,,,0,0,0,0,,,,,,,,,1,0,6,0,,,,,,,,,,,,,,,,,,,,,,,,,,,,,,,,,,,,,,,,,,,,,54.499787599997944,lu pleck,"[0.7491023000038695, 0.2419378000049619, 1.1369574999989709, 0.7119598999997834, 1.2690572999999858, 0.8518375000130618, 1.3490654999914113, 0.9079348000086611, 1.5529573999956483, 1.0179823000071337, 1.8353586000012]",54.499787599997944,54.499787599997944,54.499787599997944,"['l', 'i', 'backspace', 'u', 'space', 'p', 'l', 'e', 'c', 'k', 'return']","[0.7491023000038695, 0.9910401000088314, 1.3788953000039328, 1.8489173999987543, 1.9810171999997692, 2.1208948000130476, 2.200903000004473, 2.2570003000000725, 2.4608922000043094, 2.570939700002782, 2.853340900008334]",57.37102409999352,,,,,,,,,,,,,,,,,,,,,,,,,,,,,,,,,,,,,,,,,,1,2,2023-02-20_17h57.39.072,Memory and Syntax,2022.2.5,71.82839908010429,
lu neep,brocanto/stims/to_use/doctor2.png,,,,,,,,,,,,,,,,0,0,0,0,,,,,0,0,0,0,,,,,,,,,1,1,7,1,,,,,,,,,,,,,,,,,,,,,,,,,,,,,,,,,,,,,,,,,,,,,58.3845994000003,lu neep,"[1.0661098999989918, 0.22001789999194443, 1.3261031000001822, 6.405965099998866, 1.396116100004292, 6.538508499987074, 1.5014662000030512, 6.7886515999998664]",58.3845994000003,58.3845994000003,58.3845994000003,"['l', 'u', 'space', 'n', 'e', 'e', 'p', 'return']","[1.0661098999989918, 1.2861277999909362, 1.5461209999921266, 7.732068199999048, 7.802081200003158, 7.934624599991366, 8.039974699990125, 8.290117800002918]",66.69691050000256,,,,,,,,,,,,,,,,,,,,,,,,,,,,,,,,,,,,,,,,,,1,2,2023-02-20_17h57.39.072,Memory and Syntax,2022.2.5,71.82839908010429,
lu blom,brocanto/stims/to_use/firefighter3.jpg,,,,,,,,,,,,,,,,0,0,0,0,,,,,0,0,0,0,,,,,,,,,1,2,8,2,,,,,,,,,,,,,,,,,,,,,,,,,,,,,,,,,,,,,,,,,,,,,67.70986679999623,lu blom,"[0.7648842000053264, 0.23616179999953602, 0.928996400005417, 0.36580420000245795, 1.0070521000016015, 0.531994000004488, 1.1032059999997728, 0.7979841000051238]",67.70986679999623,67.70986679999623,67.70986679999623,"['l', 'u', 'space', 'b', 'l', 'o', 'm', 'return']","[0.7648842000053264, 1.0010460000048624, 1.165158200004953, 1.294800600007875, 1.3728563000040594, 1.5390461000060895, 1.6352000000042608, 1.9011901000048965]",69.6295775000035,,,,,,,,,,,,,,,,,,,,,,,,,,,,,,,,,,,,,,,,,,1,2,2023-02-20_17h57.39.072,Memory and Syntax,2022.2.5,71.82839908010429,
lu vode,brocanto/stims/to_use/chef1.jpg,,,,,,,,,,,,,,,,0,0,0,0,,,,,0,0,0,0,,,,,,,,,1,3,9,3,,,,,,,,,,,,,,,,,,,,,,,,,,,,,,,,,,,,,,,,,,,,,70.64397089999693,lu vode,"[0.7467763000022387, 0.2700297999981558, 1.2070242000045255, 0.9818821999942884, 1.3367628999985754, 1.0981131000007736, 1.5246146999998018, 1.448203799998737]",70.64397089999693,70.64397089999693,70.64397089999693,"['l', 'u', 'space', 'v', 'o', 'd', 'e', 'return']","[0.7467763000022387, 1.0168061000003945, 1.4770540000026813, 2.188906399998814, 2.318645099992864, 2.434875999999349, 2.6227278000005754, 2.9728184999985388]",73.64479779999238,,,,,,,,,,,,,,,,,,,,,,,,,,,,,,,,,,,,,,,,,,1,2,2023-02-20_17h57.39.072,Memory and Syntax,2022.2.5,71.82839908010429,
lu troise,brocanto/stims/to_use/janitor2.jpg,,,,,,,,,,,,,,,,0,0,0,0,,,,,0,0,0,0,,,,,,,,,1,4,10,4,,,,,,,,,,,,,,,,,,,,,,,,,,,,,,,,,,,,,,,,,,,,,74.65317559998948,lu troise,"[0.969518900004914, 0.22802339999179821, 1.1554758000129368, 0.6523831999802496, 1.3431304000114324, 0.730882499992731, 1.500700600008713, 0.7909326999943005, 1.6427344999974594, 0.9768999999942025]",74.65317559998948,74.65317559998948,74.65317559998948,"['l', 'u', 'space', 't', 'r', 'o', 'i', 's', 'e', 'return']","[0.969518900004914, 1.1975422999967122, 1.383499200004735, 1.8078589999931864, 1.995513599991682, 2.0740129000041634, 2.231583100001444, 2.2916333000030136, 2.43366719999176, 2.619634499991662]",77.28995069999655,,,,,,,,,,,,,,,,,,,,,,,,,,,,,,,,,,,,,,,,,,1,2,2023-02-20_17h57.39.072,Memory and Syntax,2022.2.5,71.82839908010429,
lu neimo,brocanto/stims/to_use/pilot3.jpg,,,,,,,,,,,,,,,,0,0,0,0,,,,,0,0,0,0,,,,,,,,,1,5,11,5,,,,,,,,,,,,,,,,,,,,,,,,,,,,,,,,,,,,,,,,,,,,,78.31533309999213,lu neimo,"[0.7536021999985678, 0.19382780000159983, 1.0096123999974225, 1.388053000002401, 1.159309700000449, 1.4619903999991948, 1.2873802999965847, 1.6779403000109596, 1.505547699984163]",78.31533309999213,78.31533309999213,78.31533309999213,"['l', 'u', 'space', 'n', 'e', 'i', 'm', 'o', 'return']","[0.7536021999985678, 0.9474300000001676, 1.2034401999990223, 2.3976653999998234, 2.54736270000285, 2.621300099999644, 2.7493706999957794, 2.9653206000075443, 3.1834879999951227]",81.51830039999913,,,,,,,,,,,,,,,,,,,,,,,,,,,,,,,,,,,,,,,,,,1,2,2023-02-20_17h57.39.072,Memory and Syntax,2022.2.5,71.82839908010429,
,,,,,,,,,,,,,,,,,0,0,0,0,,,,,0,0,0,0,,,,,,,,,,,,,,,,,,,,,,,,,,,,,,,,,,,,,,,,,,,,,,,,,,,,,,,,,,,,,,,,,,82.5300111999968,82.5300111999968,f,5.920766800001729,,,,,,,,,,,,,,,,,,,,,,,,,,,,,,,,,,,,,,1,2,2023-02-20_17h57.39.072,Memory and Syntax,2022.2.5,71.82839908010429,
,brocanto/stims/to_use/sentence31.png,lu pleck nim li,,,,,,,,,,,,,,,0,0,0,0,,,,,,,,,,,,,,,,,,,,,,,,,0,0,0,0,,,,,,,,,,,,,,,,,,,,,,,,,,,,,,,,,,,,,,,,,,,,,,,,,,88.46661059999315,88.46661059999315,91.67950589999964,91.67950589999964,,,,,,,,,,,,,,,,,,,,,,,,,,,,,,,,,,1,2,2023-02-20_17h57.39.072,Memory and Syntax,2022.2.5,71.82839908010429,
,brocanto/stims/to_use/sentence65.png,yab lu neimo lu vode,,,,,,,,,,,,,,,0,0,0,0,,,,,,,,,,,,,,,,,,,,,,,,,0,1,1,1,,,,,,,,,,,,,,,,,,,,,,,,,,,,,,,,,,,,,,,,,,,,,,,,,,,,98.28364729999157,98.28364729999157,,,,,,,,,,,,,,,,,,,,,,,,,,,,,,,,,,1,2,2023-02-20_17h57.39.072,Memory and Syntax,2022.2.5,71.82839908010429,
,brocanto/stims/to_use/sentence63.png,yab lu neimo lu neep,,,,,,,,,,,,,,,0,0,0,0,,,,,,,,,,,,,,,,,,,,,,,,,0,2,2,2,,,,,,,,,,,,,,,,,,,,,,,,,,,,,,,,,,,,,,,,,,,,,,,,,,,,104.89413020000211,104.89413020000211,,,,,,,,,,,,,,,,,,,,,,,,,,,,,,,,,,1,2,2023-02-20_17h57.39.072,Memory and Syntax,2022.2.5,71.82839908010429,
,brocanto/stims/to_use/sentence68.png,lu neep praz li,,,,,,,,,,,,,,,0,0,0,0,,,,,,,,,,,,,,,,,,,,,,,,,0,3,3,3,,,,,,,,,,,,,,,,,,,,,,,,,,,,,,,,,,,,,,,,,,,,,,,,,,,,111.48494589999609,111.48494589999609,,,,,,,,,,,,,,,,,,,,,,,,,,,,,,,,,,1,2,2023-02-20_17h57.39.072,Memory and Syntax,2022.2.5,71.82839908010429,
,brocanto/stims/to_use/sentence39.png,yab lu pleck lu vode,,,,,,,,,,,,,,,0,0,0,0,,,,,,,,,,,,,,,,,,,,,,,,,0,4,4,4,,,,,,,,,,,,,,,,,,,,,,,,,,,,,,,,,,,,,,,,,,,,,,,,,,,,118.09149730000354,118.09149730000354,,,,,,,,,,,,,,,,,,,,,,,,,,,,,,,,,,1,2,2023-02-20_17h57.39.072,Memory and Syntax,2022.2.5,71.82839908010429,
,brocanto/stims/to_use/sentence14.png,klin lu blom lu troise,,,,,,,,,,,,,,,0,0,0,0,,,,,,,,,,,,,,,,,,,,,,,,,0,5,5,5,,,,,,,,,,,,,,,,,,,,,,,,,,,,,,,,,,,,,,,,,,,,,,,,,,,,124.69657129999541,124.69657129999541,,,,,,,,,,,,,,,,,,,,,,,,,,,,,,,,,,1,2,2023-02-20_17h57.39.072,Memory and Syntax,2022.2.5,71.82839908010429,
,brocanto/stims/to_use/sentence105.png,lu blom zayma li,,,,,,,,,,,,,,,0,0,0,0,,,,,,,,,,,,,,,,,,,,,,,,,0,6,6,6,,,,,,,,,,,,,,,,,,,,,,,,,,,,,,,,,,,,,,,,,,,,,,,,,,,,131.28404440000304,131.28404440000304,,,,,,,,,,,,,,,,,,,,,,,,,,,,,,,,,,1,2,2023-02-20_17h57.39.072,Memory and Syntax,2022.2.5,71.82839908010429,
,brocanto/stims/to_use/sentence103.png,lu pleck zayma li,,,,,,,,,,,,,,,0,0,0,0,,,,,,,,,,,,,,,,,,,,,,,,,0,7,7,7,,,,,,,,,,,,,,,,,,,,,,,,,,,,,,,,,,,,,,,,,,,,,,,,,,,,137.8764627999917,137.8764627999917,,,,,,,,,,,,,,,,,,,,,,,,,,,,,,,,,,1,2,2023-02-20_17h57.39.072,Memory and Syntax,2022.2.5,71.82839908010429,
,brocanto/stims/to_use/sentence17.png,klin lu vode lu neep,,,,,,,,,,,,,,,0,0,0,0,,,,,,,,,,,,,,,,,,,,,,,,,0,8,8,8,,,,,,,,,,,,,,,,,,,,,,,,,,,,,,,,,,,,,,,,,,,,,,,,,,,,144.52574759999698,144.52574759999698,,,,,,,,,,,,,,,,,,,,,,,,,,,,,,,,,,1,2,2023-02-20_17h57.39.072,Memory and Syntax,2022.2.5,71.82839908010429,
,brocanto/stims/to_use/sentence12.png,klin lu blom lu neep,,,,,,,,,,,,,,,0,0,0,0,,,,,,,,,,,,,,,,,,,,,,,,,0,9,9,9,,,,,,,,,,,,,,,,,,,,,,,,,,,,,,,,,,,,,,,,,,,,,,,,,,,,151.11566070000117,151.11566070000117,,,,,,,,,,,,,,,,,,,,,,,,,,,,,,,,,,1,2,2023-02-20_17h57.39.072,Memory and Syntax,2022.2.5,71.82839908010429,
,brocanto/stims/to_use/sentence29.png,klin lu neimo lu vode,,,,,,,,,,,,,,,0,0,0,0,,,,,,,,,,,,,,,,,,,,,,,,,0,10,10,10,,,,,,,,,,,,,,,,,,,,,,,,,,,,,,,,,,,,,,,,,,,,,,,,,,,,157.70181589999993,157.70181589999993,,,,,,,,,,,,,,,,,,,,,,,,,,,,,,,,,,1,2,2023-02-20_17h57.39.072,Memory and Syntax,2022.2.5,71.82839908010429,
,brocanto/stims/to_use/sentence70.png,lu vode praz li,,,,,,,,,,,,,,,0,0,0,0,,,,,,,,,,,,,,,,,,,,,,,,,0,11,11,11,,,,,,,,,,,,,,,,,,,,,,,,,,,,,,,,,,,,,,,,,,,,,,,,,,,,164.2965811000031,164.2965811000031,,,,,,,,,,,,,,,,,,,,,,,,,,,,,,,,,,1,2,2023-02-20_17h57.39.072,Memory and Syntax,2022.2.5,71.82839908010429,
,brocanto/stims/to_use/sentence107.png,lu troise zayma li,,,,,,,,,,,,,,,0,0,0,0,,,,,,,,,,,,,,,,,,,,,,,,,0,12,12,12,,,,,,,,,,,,,,,,,,,,,,,,,,,,,,,,,,,,,,,,,,,,,,,,,,,,170.88053110000328,170.88053110000328,,,,,,,,,,,,,,,,,,,,,,,,,,,,,,,,,,1,2,2023-02-20_17h57.39.072,Memory and Syntax,2022.2.5,71.82839908010429,
,brocanto/stims/to_use/sentence32.png,lu neep nim li,,,,,,,,,,,,,,,0,0,0,0,,,,,,,,,,,,,,,,,,,,,,,,,0,13,13,13,,,,,,,,,,,,,,,,,,,,,,,,,,,,,,,,,,,,,,,,,,,,,,,,,,,,177.49140529999568,177.49140529999568,,,,,,,,,,,,,,,,,,,,,,,,,,,,,,,,,,1,2,2023-02-20_17h57.39.072,Memory and Syntax,2022.2.5,71.82839908010429,
,brocanto/stims/to_use/sentence26.png,klin lu neimo lu pleck,,,,,,,,,,,,,,,0,0,0,0,,,,,,,,,,,,,,,,,,,,,,,,,0,14,14,14,,,,,,,,,,,,,,,,,,,,,,,,,,,,,,,,,,,,,,,,,,,,,,,,,,,,184.09350409999024,184.09350409999024,,,,,,,,,,,,,,,,,,,,,,,,,,,,,,,,,,1,2,2023-02-20_17h57.39.072,Memory and Syntax,2022.2.5,71.82839908010429,
,brocanto/stims/to_use/sentence35.png,lu troise nim li,,,,,,,,,,,,,,,0,0,0,0,,,,,,,,,,,,,,,,,,,,,,,,,0,15,15,15,,,,,,,,,,,,,,,,,,,,,,,,,,,,,,,,,,,,,,,,,,,,,,,,,,,,190.68534869998985,190.68534869998985,,,,,,,,,,,,,,,,,,,,,,,,,,,,,,,,,,1,2,2023-02-20_17h57.39.072,Memory and Syntax,2022.2.5,71.82839908010429,
,brocanto/stims/to_use/sentence79.png,noyka lu neep lu blom,,,,,,,,,,,,,,,0,0,0,0,,,,,,,,,,,,,,,,,,,,,,,,,0,16,16,16,,,,,,,,,,,,,,,,,,,,,,,,,,,,,,,,,,,,,,,,,,,,,,,,,,,,197.28998010000214,197.28998010000214,,,,,,,,,,,,,,,,,,,,,,,,,,,,,,,,,,1,2,2023-02-20_17h57.39.072,Memory and Syntax,2022.2.5,71.82839908010429,
,brocanto/stims/to_use/sentence71.png,lu troise praz li,,,,,,,,,,,,,,,0,0,0,0,,,,,,,,,,,,,,,,,,,,,,,,,0,17,17,17,,,,,,,,,,,,,,,,,,,,,,,,,,,,,,,,,,,,,,,,,,,,,,,,,,,,203.89068319999205,203.89068319999205,,,,,,,,,,,,,,,,,,,,,,,,,,,,,,,,,,1,2,2023-02-20_17h57.39.072,Memory and Syntax,2022.2.5,71.82839908010429,
,brocanto/stims/to_use/sentence75.png,noyka lu pleck lu vode,,,,,,,,,,,,,,,0,0,0,0,,,,,,,,,,,,,,,,,,,,,,,,,0,18,18,18,,,,,,,,,,,,,,,,,,,,,,,,,,,,,,,,,,,,,,,,,,,,,,,,,,,,210.4895952999941,210.4895952999941,,,,,,,,,,,,,,,,,,,,,,,,,,,,,,,,,,1,2,2023-02-20_17h57.39.072,Memory and Syntax,2022.2.5,71.82839908010429,
,brocanto/stims/to_use/sentence72.png,lu neimo praz li,,,,,,,,,,,,,,,0,0,0,0,,,,,,,,,,,,,,,,,,,,,,,,,0,19,19,19,,,,,,,,,,,,,,,,,,,,,,,,,,,,,,,,,,,,,,,,,,,,,,,,,,,,217.08243660000153,217.08243660000153,,,,,,,,,,,,,,,,,,,,,,,,,,,,,,,,,,1,2,2023-02-20_17h57.39.072,Memory and Syntax,2022.2.5,71.82839908010429,
,brocanto/stims/to_use/sentence36.png,lu neimo nim li,,,,,,,,,,,,,,,0,0,0,0,,,,,,,,,,,,,,,,,,,,,,,,,0,20,20,20,,,,,,,,,,,,,,,,,,,,,,,,,,,,,,,,,,,,,,,,,,,,,,,,,,,,223.68871139999828,223.68871139999828,,,,,,,,,,,,,,,,,,,,,,,,,,,,,,,,,,1,2,2023-02-20_17h57.39.072,Memory and Syntax,2022.2.5,71.82839908010429,
,brocanto/stims/to_use/sentence53.png,yab lu vode lu neep,,,,,,,,,,,,,,,0,0,0,0,,,,,,,,,,,,,,,,,,,,,,,,,0,21,21,21,,,,,,,,,,,,,,,,,,,,,,,,,,,,,,,,,,,,,,,,,,,,,,,,,,,,230.28976939999848,230.28976939999848,,,,,,,,,,,,,,,,,,,,,,,,,,,,,,,,,,1,2,2023-02-20_17h57.39.072,Memory and Syntax,2022.2.5,71.82839908010429,
,brocanto/stims/to_use/sentence69.png,lu blom praz li,,,,,,,,,,,,,,,0,0,0,0,,,,,,,,,,,,,,,,,,,,,,,,,0,22,22,22,,,,,,,,,,,,,,,,,,,,,,,,,,,,,,,,,,,,,,,,,,,,,,,,,,,,236.89155819998996,236.89155819998996,,,,,,,,,,,,,,,,,,,,,,,,,,,,,,,,,,1,2,2023-02-20_17h57.39.072,Memory and Syntax,2022.2.5,71.82839908010429,
,brocanto/stims/to_use/sentence104.png,lu neep zayma li,,,,,,,,,,,,,,,0,0,0,0,,,,,,,,,,,,,,,,,,,,,,,,,0,23,23,23,,,,,,,,,,,,,,,,,,,,,,,,,,,,,,,,,,,,,,,,,,,,,,,,,,,,243.4822850999917,243.4822850999917,,,,,,,,,,,,,,,,,,,,,,,,,,,,,,,,,,1,2,2023-02-20_17h57.39.072,Memory and Syntax,2022.2.5,71.82839908010429,
,brocanto/stims/to_use/sentence89.png,noyka lu vode lu neep,,,,,,,,,,,,,,,0,0,0,0,,,,,,,,,,,,,,,,,,,,,,,,,0,24,24,24,,,,,,,,,,,,,,,,,,,,,,,,,,,,,,,,,,,,,,,,,,,,,,,,,,,,250.10063079999236,250.10063079999236,,,,,,,,,,,,,,,,,,,,,,,,,,,,,,,,,,1,2,2023-02-20_17h57.39.072,Memory and Syntax,2022.2.5,71.82839908010429,
,brocanto/stims/to_use/sentence102.png,noyka lu neimo lu troise,,,,,,,,,,,,,,,0,0,0,0,,,,,,,,,,,,,,,,,,,,,,,,,0,25,25,25,,,,,,,,,,,,,,,,,,,,,,,,,,,,,,,,,,,,,,,,,,,,,,,,,,,,256.690777900003,256.690777900003,,,,,,,,,,,,,,,,,,,,,,,,,,,,,,,,,,1,2,2023-02-20_17h57.39.072,Memory and Syntax,2022.2.5,71.82839908010429,
,brocanto/stims/to_use/sentence44.png,yab lu neep lu vode,,,,,,,,,,,,,,,0,0,0,0,,,,,,,,,,,,,,,,,,,,,,,,,0,26,26,26,,,,,,,,,,,,,,,,,,,,,,,,,,,,,,,,,,,,,,,,,,,,,,,,,,,,263.30152189999353,263.30152189999353,,,,,,,,,,,,,,,,,,,,,,,,,,,,,,,,,,1,2,2023-02-20_17h57.39.072,Memory and Syntax,2022.2.5,71.82839908010429,
,brocanto/stims/to_use/sentence34.png,lu vode nim li,,,,,,,,,,,,,,,0,0,0,0,,,,,,,,,,,,,,,,,,,,,,,,,0,27,27,27,,,,,,,,,,,,,,,,,,,,,,,,,,,,,,,,,,,,,,,,,,,,,,,,,,,,269.87654869999096,269.87654869999096,,,,,,,,,,,,,,,,,,,,,,,,,,,,,,,,,,1,2,2023-02-20_17h57.39.072,Memory and Syntax,2022.2.5,71.82839908010429,
,,lu pleck nim li,2,0,0,2,2,0,0,2,brocanto/stims/to_use/sentence31.png,"['brocanto/stims/to_use/sentence65.png', 'brocanto/stims/to_use/sentence63.png', 'brocanto/stims/to_use/sentence68.png', 'brocanto/stims/to_use/sentence39.png', 'brocanto/stims/to_use/sentence14.png', 'brocanto/stims/to_use/sentence105.png', 'brocanto/stims/to_use/sentence103.png', 'brocanto/stims/to_use/sentence17.png', 'brocanto/stims/to_use/sentence12.png', 'brocanto/stims/to_use/sentence29.png', 'brocanto/stims/to_use/sentence70.png', 'brocanto/stims/to_use/sentence107.png', 'brocanto/stims/to_use/sentence32.png', 'brocanto/stims/to_use/sentence26.png', 'brocanto/stims/to_use/sentence35.png', 'brocanto/stims/to_use/sentence79.png', 'brocanto/stims/to_use/sentence71.png', 'brocanto/stims/to_use/sentence75.png', 'brocanto/stims/to_use/sentence72.png', 'brocanto/stims/to_use/sentence36.png', 'brocanto/stims/to_use/sentence53.png', 'brocanto/stims/to_use/sentence69.png', 'brocanto/stims/to_use/sentence104.png', 'brocanto/stims/to_use/sentence89.png', 'brocanto/stims/to_use/sentence102.png', 'brocanto/stims/to_use/sentence44.png', 'brocanto/stims/to_use/sentence34.png']",,,,,0,0,0,0,,,,,,,,,,,,,,,,,,,,,,,,,,,,,0,0,0,0,0,0,0,0,0,0,0,0,,,,,,,,,,,,,,,,,,,,,,,,,,,,,,,,,,,,,,,,,,276.47808049999,276.47808049999,333.4317530999979,333.4317530999979,333.4317530999979,333.4317530999979,333.4317530999979,333.4317530999979,336.52115179999964,336.9466020999971,336.9466020999971,337.9343455999915,337.9343455999915,337.9343455999915,337.9343455999915,337.9343455999915,337.9343455999915,337.9343455999915,337.9343455999915,337.9343455999915,337.9343455999915,338.0141406999901,4,0,9.110226799995871,347.1436201000033,347.1436201000033,,,,,,,1,2,2023-02-20_17h57.39.072,Memory and Syntax,2022.2.5,71.82839908010429,
,,yab lu neimo lu vode,2,0,0,2,2,0,0,2,brocanto/stims/to_use/sentence65.png,"['brocanto/stims/to_use/sentence31.png', 'brocanto/stims/to_use/sentence63.png', 'brocanto/stims/to_use/sentence68.png', 'brocanto/stims/to_use/sentence39.png', 'brocanto/stims/to_use/sentence14.png', 'brocanto/stims/to_use/sentence105.png', 'brocanto/stims/to_use/sentence103.png', 'brocanto/stims/to_use/sentence17.png', 'brocanto/stims/to_use/sentence12.png', 'brocanto/stims/to_use/sentence29.png', 'brocanto/stims/to_use/sentence70.png', 'brocanto/stims/to_use/sentence107.png', 'brocanto/stims/to_use/sentence32.png', 'brocanto/stims/to_use/sentence26.png', 'brocanto/stims/to_use/sentence35.png', 'brocanto/stims/to_use/sentence79.png', 'brocanto/stims/to_use/sentence71.png', 'brocanto/stims/to_use/sentence75.png', 'brocanto/stims/to_use/sentence72.png', 'brocanto/stims/to_use/sentence36.png', 'brocanto/stims/to_use/sentence53.png', 'brocanto/stims/to_use/sentence69.png', 'brocanto/stims/to_use/sentence104.png', 'brocanto/stims/to_use/sentence89.png', 'brocanto/stims/to_use/sentence102.png', 'brocanto/stims/to_use/sentence44.png', 'brocanto/stims/to_use/sentence34.png']",,,,,0,0,0,0,,,,,,,,,,,,,,,,,,,,,,,,,,,,,0,0,0,0,0,0,0,0,0,1,1,1,,,,,,,,,,,,,,,,,,,,,,,,,,,,,,,,,,,,,,,,,,,,,,,,,,348.1515026999987,348.57884770000237,348.57884770000237,349.53090630000224,349.53090630000224,349.53090630000224,349.53090630000224,349.53090630000224,349.53090630000224,349.53090630000224,349.53090630000224,349.53090630000224,349.53090630000224,349.60532659999444,4,1,13.779112299991539,363.40050429999246,363.40050429999246,,,,,,,1,2,2023-02-20_17h57.39.072,Memory and Syntax,2022.2.5,71.82839908010429,
,,yab lu neimo lu neep,2,0,0,2,2,0,0,2,brocanto/stims/to_use/sentence63.png,"['brocanto/stims/to_use/sentence31.png', 'brocanto/stims/to_use/sentence65.png', 'brocanto/stims/to_use/sentence68.png', 'brocanto/stims/to_use/sentence39.png', 'brocanto/stims/to_use/sentence14.png', 'brocanto/stims/to_use/sentence105.png', 'brocanto/stims/to_use/sentence103.png', 'brocanto/stims/to_use/sentence17.png', 'brocanto/stims/to_use/sentence12.png', 'brocanto/stims/to_use/sentence29.png', 'brocanto/stims/to_use/sentence70.png', 'brocanto/stims/to_use/sentence107.png', 'brocanto/stims/to_use/sentence32.png', 'brocanto/stims/to_use/sentence26.png', 'brocanto/stims/to_use/sentence35.png', 'brocanto/stims/to_use/sentence79.png', 'brocanto/stims/to_use/sentence71.png', 'brocanto/stims/to_use/sentence75.png', 'brocanto/stims/to_use/sentence72.png', 'brocanto/stims/to_use/sentence36.png', 'brocanto/stims/to_use/sentence53.png', 'brocanto/stims/to_use/sentence69.png', 'brocanto/stims/to_use/sentence104.png', 'brocanto/stims/to_use/sentence89.png', 'brocanto/stims/to_use/sentence102.png', 'brocanto/stims/to_use/sentence44.png', 'brocanto/stims/to_use/sentence34.png']",,,,,0,0,0,0,,,,,,,,,,,,,,,,,,,,,,,,,,,,,0,0,0,0,0,0,0,0,0,2,2,2,,,,,,,,,,,,,,,,,,,,,,,,,,,,,,,,,,,,,,,,,,,,,,,,,,364.4113708999939,364.8384761999914,364.8384761999914,365.86925019999035,365.86925019999035,365.86925019999035,365.86925019999035,365.86925019999035,365.86925019999035,365.86925019999035,365.86925019999035,365.86925019999035,365.86925019999035,365.93618750000314,3,1,6.194225999992341,372.1566986999969,372.1566986999969,,,,,,,1,2,2023-02-20_17h57.39.072,Memory and Syntax,2022.2.5,71.82839908010429,
,,lu neep praz li,2,0,0,2,2,0,0,2,brocanto/stims/to_use/sentence68.png,"['brocanto/stims/to_use/sentence31.png', 'brocanto/stims/to_use/sentence65.png', 'brocanto/stims/to_use/sentence63.png', 'brocanto/stims/to_use/sentence39.png', 'brocanto/stims/to_use/sentence14.png', 'brocanto/stims/to_use/sentence105.png', 'brocanto/stims/to_use/sentence103.png', 'brocanto/stims/to_use/sentence17.png', 'brocanto/stims/to_use/sentence12.png', 'brocanto/stims/to_use/sentence29.png', 'brocanto/stims/to_use/sentence70.png', 'brocanto/stims/to_use/sentence107.png', 'brocanto/stims/to_use/sentence32.png', 'brocanto/stims/to_use/sentence26.png', 'brocanto/stims/to_use/sentence35.png', 'brocanto/stims/to_use/sentence79.png', 'brocanto/stims/to_use/sentence71.png', 'brocanto/stims/to_use/sentence75.png', 'brocanto/stims/to_use/sentence72.png', 'brocanto/stims/to_use/sentence36.png', 'brocanto/stims/to_use/sentence53.png', 'brocanto/stims/to_use/sentence69.png', 'brocanto/stims/to_use/sentence104.png', 'brocanto/stims/to_use/sentence89.png', 'brocanto/stims/to_use/sentence102.png', 'brocanto/stims/to_use/sentence44.png', 'brocanto/stims/to_use/sentence34.png']",,,,,0,0,0,0,,,,,,,,,,,,,,,,,,,,,,,,,,,,,0,0,0,0,0,0,0,0,0,3,3,3,,,,,,,,,,,,,,,,,,,,,,,,,,,,,,,,,,,,,,,,,,,,,,,,,,373.1676463999902,373.5948819999903,373.5948819999903,374.5259815000027,374.5259815000027,374.5259815000027,374.5259815000027,374.5259815000027,374.5259815000027,374.5259815000027,374.5259815000027,374.5259815000027,374.5259815000027,374.61053659999743,2,0,7.405850600000122,382.0376830000023,382.0376830000023,,,,,,,1,2,2023-02-20_17h57.39.072,Memory and Syntax,2022.2.5,71.82839908010429,
,,yab lu pleck lu vode,2,0,0,2,2,0,0,2,brocanto/stims/to_use/sentence39.png,"['brocanto/stims/to_use/sentence31.png', 'brocanto/stims/to_use/sentence65.png', 'brocanto/stims/to_use/sentence63.png', 'brocanto/stims/to_use/sentence68.png', 'brocanto/stims/to_use/sentence14.png', 'brocanto/stims/to_use/sentence105.png', 'brocanto/stims/to_use/sentence103.png', 'brocanto/stims/to_use/sentence17.png', 'brocanto/stims/to_use/sentence12.png', 'brocanto/stims/to_use/sentence29.png', 'brocanto/stims/to_use/sentence70.png', 'brocanto/stims/to_use/sentence107.png', 'brocanto/stims/to_use/sentence32.png', 'brocanto/stims/to_use/sentence26.png', 'brocanto/stims/to_use/sentence35.png', 'brocanto/stims/to_use/sentence79.png', 'brocanto/stims/to_use/sentence71.png', 'brocanto/stims/to_use/sentence75.png', 'brocanto/stims/to_use/sentence72.png', 'brocanto/stims/to_use/sentence36.png', 'brocanto/stims/to_use/sentence53.png', 'brocanto/stims/to_use/sentence69.png', 'brocanto/stims/to_use/sentence104.png', 'brocanto/stims/to_use/sentence89.png', 'brocanto/stims/to_use/sentence102.png', 'brocanto/stims/to_use/sentence44.png', 'brocanto/stims/to_use/sentence34.png']",,,,,0,0,0,0,,,,,,,,,,,,,,,,,,,,,,,,,,,,,0,0,0,0,0,0,0,0,0,4,4,4,,,,,,,,,,,,,,,,,,,,,,,,,,,,,,,,,,,,,,,,,,,,,,,,,,383.0487664999964,383.4760011000035,383.4760011000035,384.41013499999826,384.41013499999826,384.41013499999826,384.41013499999826,384.41013499999826,384.41013499999826,384.41013499999826,384.41013499999826,384.41013499999826,384.41013499999826,384.4866894000006,3,1,18.603725100008887,403.1099871999904,403.1099871999904,,,,,,,1,2,2023-02-20_17h57.39.072,Memory and Syntax,2022.2.5,71.82839908010429,
,,klin lu blom lu troise,2,0,0,2,2,0,0,2,brocanto/stims/to_use/sentence14.png,"['brocanto/stims/to_use/sentence31.png', 'brocanto/stims/to_use/sentence65.png', 'brocanto/stims/to_use/sentence63.png', 'brocanto/stims/to_use/sentence68.png', 'brocanto/stims/to_use/sentence39.png', 'brocanto/stims/to_use/sentence105.png', 'brocanto/stims/to_use/sentence103.png', 'brocanto/stims/to_use/sentence17.png', 'brocanto/stims/to_use/sentence12.png', 'brocanto/stims/to_use/sentence29.png', 'brocanto/stims/to_use/sentence70.png', 'brocanto/stims/to_use/sentence107.png', 'brocanto/stims/to_use/sentence32.png', 'brocanto/stims/to_use/sentence26.png', 'brocanto/stims/to_use/sentence35.png', 'brocanto/stims/to_use/sentence79.png', 'brocanto/stims/to_use/sentence71.png', 'brocanto/stims/to_use/sentence75.png', 'brocanto/stims/to_use/sentence72.png', 'brocanto/stims/to_use/sentence36.png', 'brocanto/stims/to_use/sentence53.png', 'brocanto/stims/to_use/sentence69.png', 'brocanto/stims/to_use/sentence104.png', 'brocanto/stims/to_use/sentence89.png', 'brocanto/stims/to_use/sentence102.png', 'brocanto/stims/to_use/sentence44.png', 'brocanto/stims/to_use/sentence34.png']",,,,,0,0,0,0,,,,,,,,,,,,,,,,,,,,,,,,,,,,,0,0,0,0,0,0,0,0,0,5,5,5,,,,,,,,,,,,,,,,,,,,,,,,,,,,,,,,,,,,,,,,,,,,,,,,,,404.12088190000213,404.54797079999116,404.54797079999116,405.602052599992,405.602052599992,405.602052599992,405.602052599992,405.602052599992,405.602052599992,405.602052599992,405.602052599992,405.602052599992,405.602052599992,405.6874451999902,3,1,7.814879800003837,413.51773399999365,413.51773399999365,,,,,,,1,2,2023-02-20_17h57.39.072,Memory and Syntax,2022.2.5,71.82839908010429,
,,lu blom zayma li,2,0,0,2,2,0,0,2,brocanto/stims/to_use/sentence105.png,"['brocanto/stims/to_use/sentence31.png', 'brocanto/stims/to_use/sentence65.png', 'brocanto/stims/to_use/sentence63.png', 'brocanto/stims/to_use/sentence68.png', 'brocanto/stims/to_use/sentence39.png', 'brocanto/stims/to_use/sentence14.png', 'brocanto/stims/to_use/sentence103.png', 'brocanto/stims/to_use/sentence17.png', 'brocanto/stims/to_use/sentence12.png', 'brocanto/stims/to_use/sentence29.png', 'brocanto/stims/to_use/sentence70.png', 'brocanto/stims/to_use/sentence107.png', 'brocanto/stims/to_use/sentence32.png', 'brocanto/stims/to_use/sentence26.png', 'brocanto/stims/to_use/sentence35.png', 'brocanto/stims/to_use/sentence79.png', 'brocanto/stims/to_use/sentence71.png', 'brocanto/stims/to_use/sentence75.png', 'brocanto/stims/to_use/sentence72.png', 'brocanto/stims/to_use/sentence36.png', 'brocanto/stims/to_use/sentence53.png', 'brocanto/stims/to_use/sentence69.png', 'brocanto/stims/to_use/sentence104.png', 'brocanto/stims/to_use/sentence89.png', 'brocanto/stims/to_use/sentence102.png', 'brocanto/stims/to_use/sentence44.png', 'brocanto/stims/to_use/sentence34.png']",,,,,0,0,0,0,,,,,,,,,,,,,,,,,,,,,,,,,,,,,0,0,0,0,0,0,0,0,0,6,6,6,,,,,,,,,,,,,,,,,,,,,,,,,,,,,,,,,,,,,,,,,,,,,,,,,,414.528808499992,414.9558740999928,414.9558740999928,415.91172999999253,415.91172999999253,415.91172999999253,415.91172999999253,415.91172999999253,415.91172999999253,415.91172999999253,415.91172999999253,415.91172999999253,415.91172999999253,415.99519339999824,2,1,2.217544499988435,418.2308544999978,418.2308544999978,,,,,,,1,2,2023-02-20_17h57.39.072,Memory and Syntax,2022.2.5,71.82839908010429,
,,lu pleck zayma li,2,0,0,2,2,0,0,2,brocanto/stims/to_use/sentence103.png,"['brocanto/stims/to_use/sentence31.png', 'brocanto/stims/to_use/sentence65.png', 'brocanto/stims/to_use/sentence63.png', 'brocanto/stims/to_use/sentence68.png', 'brocanto/stims/to_use/sentence39.png', 'brocanto/stims/to_use/sentence14.png', 'brocanto/stims/to_use/sentence105.png', 'brocanto/stims/to_use/sentence17.png', 'brocanto/stims/to_use/sentence12.png', 'brocanto/stims/to_use/sentence29.png', 'brocanto/stims/to_use/sentence70.png', 'brocanto/stims/to_use/sentence107.png', 'brocanto/stims/to_use/sentence32.png', 'brocanto/stims/to_use/sentence26.png', 'brocanto/stims/to_use/sentence35.png', 'brocanto/stims/to_use/sentence79.png', 'brocanto/stims/to_use/sentence71.png', 'brocanto/stims/to_use/sentence75.png', 'brocanto/stims/to_use/sentence72.png', 'brocanto/stims/to_use/sentence36.png', 'brocanto/stims/to_use/sentence53.png', 'brocanto/stims/to_use/sentence69.png', 'brocanto/stims/to_use/sentence104.png', 'brocanto/stims/to_use/sentence89.png', 'brocanto/stims/to_use/sentence102.png', 'brocanto/stims/to_use/sentence44.png', 'brocanto/stims/to_use/sentence34.png']",,,,,0,0,0,0,,,,,,,,,,,,,,,,,,,,,,,,,,,,,0,0,0,0,0,0,0,0,0,7,7,7,,,,,,,,,,,,,,,,,,,,,,,,,,,,,,,,,,,,,,,,,,,,,,,,,,419.2416943999997,419.66878539999016,419.66878539999016,420.62516049999977,420.62516049999977,420.62516049999977,420.62516049999977,420.62516049999977,420.62516049999977,420.62516049999977,420.62516049999977,420.62516049999977,420.62516049999977,420.7080080000014,3,1,6.172392299995408,426.9013844000001,426.9013844000001,,,,,,,1,2,2023-02-20_17h57.39.072,Memory and Syntax,2022.2.5,71.82839908010429,
,,klin lu vode lu neep,2,0,0,2,2,0,0,2,brocanto/stims/to_use/sentence17.png,"['brocanto/stims/to_use/sentence31.png', 'brocanto/stims/to_use/sentence65.png', 'brocanto/stims/to_use/sentence63.png', 'brocanto/stims/to_use/sentence68.png', 'brocanto/stims/to_use/sentence39.png', 'brocanto/stims/to_use/sentence14.png', 'brocanto/stims/to_use/sentence105.png', 'brocanto/stims/to_use/sentence103.png', 'brocanto/stims/to_use/sentence12.png', 'brocanto/stims/to_use/sentence29.png', 'brocanto/stims/to_use/sentence70.png', 'brocanto/stims/to_use/sentence107.png', 'brocanto/stims/to_use/sentence32.png', 'brocanto/stims/to_use/sentence26.png', 'brocanto/stims/to_use/sentence35.png', 'brocanto/stims/to_use/sentence79.png', 'brocanto/stims/to_use/sentence71.png', 'brocanto/stims/to_use/sentence75.png', 'brocanto/stims/to_use/sentence72.png', 'brocanto/stims/to_use/sentence36.png', 'brocanto/stims/to_use/sentence53.png', 'brocanto/stims/to_use/sentence69.png', 'brocanto/stims/to_use/sentence104.png', 'brocanto/stims/to_use/sentence89.png', 'brocanto/stims/to_use/sentence102.png', 'brocanto/stims/to_use/sentence44.png', 'brocanto/stims/to_use/sentence34.png']",,,,,0,0,0,0,,,,,,,,,,,,,,,,,,,,,,,,,,,,,0,0,0,0,0,0,0,0,0,8,8,8,,,,,,,,,,,,,,,,,,,,,,,,,,,,,,,,,,,,,,,,,,,,,,,,,,427.912385299991,428.3396180999989,428.3396180999989,429.3593228999962,429.3593228999962,429.3593228999962,429.3593228999962,429.3593228999962,429.3593228999962,429.3593228999962,429.3593228999962,429.3593228999962,429.3593228999962,429.43593249999685,4,1,8.260403899999801,437.72232459999213,437.72232459999213,,,,,,,1,2,2023-02-20_17h57.39.072,Memory and Syntax,2022.2.5,71.82839908010429,
,,klin lu blom lu neep,2,0,0,2,2,0,0,2,brocanto/stims/to_use/sentence12.png,"['brocanto/stims/to_use/sentence31.png', 'brocanto/stims/to_use/sentence65.png', 'brocanto/stims/to_use/sentence63.png', 'brocanto/stims/to_use/sentence68.png', 'brocanto/stims/to_use/sentence39.png', 'brocanto/stims/to_use/sentence14.png', 'brocanto/stims/to_use/sentence105.png', 'brocanto/stims/to_use/sentence103.png', 'brocanto/stims/to_use/sentence17.png', 'brocanto/stims/to_use/sentence29.png', 'brocanto/stims/to_use/sentence70.png', 'brocanto/stims/to_use/sentence107.png', 'brocanto/stims/to_use/sentence32.png', 'brocanto/stims/to_use/sentence26.png', 'brocanto/stims/to_use/sentence35.png', 'brocanto/stims/to_use/sentence79.png', 'brocanto/stims/to_use/sentence71.png', 'brocanto/stims/to_use/sentence75.png', 'brocanto/stims/to_use/sentence72.png', 'brocanto/stims/to_use/sentence36.png', 'brocanto/stims/to_use/sentence53.png', 'brocanto/stims/to_use/sentence69.png', 'brocanto/stims/to_use/sentence104.png', 'brocanto/stims/to_use/sentence89.png', 'brocanto/stims/to_use/sentence102.png', 'brocanto/stims/to_use/sentence44.png', 'brocanto/stims/to_use/sentence34.png']",,,,,0,0,0,0,,,,,,,,,,,,,,,,,,,,,,,,,,,,,0,0,0,0,0,0,0,0,0,9,9,9,,,,,,,,,,,,,,,,,,,,,,,,,,,,,,,,,,,,,,,,,,,,,,,,,,438.73322290000215,439.1603471999988,439.1603471999988,440.1745995999954,440.1745995999954,440.1745995999954,440.1745995999954,440.1745995999954,440.1745995999954,440.1745995999954,440.1745995999954,440.1745995999954,440.1745995999954,440.2569183000014,2,1,3.7134062999975868,443.98745309999504,443.98745309999504,,,,,,,1,2,2023-02-20_17h57.39.072,Memory and Syntax,2022.2.5,71.82839908010429,
,,klin lu neimo lu vode,2,0,0,2,2,0,0,2,brocanto/stims/to_use/sentence29.png,"['brocanto/stims/to_use/sentence31.png', 'brocanto/stims/to_use/sentence65.png', 'brocanto/stims/to_use/sentence63.png', 'brocanto/stims/to_use/sentence68.png', 'brocanto/stims/to_use/sentence39.png', 'brocanto/stims/to_use/sentence14.png', 'brocanto/stims/to_use/sentence105.png', 'brocanto/stims/to_use/sentence103.png', 'brocanto/stims/to_use/sentence17.png', 'brocanto/stims/to_use/sentence12.png', 'brocanto/stims/to_use/sentence70.png', 'brocanto/stims/to_use/sentence107.png', 'brocanto/stims/to_use/sentence32.png', 'brocanto/stims/to_use/sentence26.png', 'brocanto/stims/to_use/sentence35.png', 'brocanto/stims/to_use/sentence79.png', 'brocanto/stims/to_use/sentence71.png', 'brocanto/stims/to_use/sentence75.png', 'brocanto/stims/to_use/sentence72.png', 'brocanto/stims/to_use/sentence36.png', 'brocanto/stims/to_use/sentence53.png', 'brocanto/stims/to_use/sentence69.png', 'brocanto/stims/to_use/sentence104.png', 'brocanto/stims/to_use/sentence89.png', 'brocanto/stims/to_use/sentence102.png', 'brocanto/stims/to_use/sentence44.png', 'brocanto/stims/to_use/sentence34.png']",,,,,0,0,0,0,,,,,,,,,,,,,,,,,,,,,,,,,,,,,0,0,0,0,0,0,0,0,0,10,10,10,,,,,,,,,,,,,,,,,,,,,,,,,,,,,,,,,,,,,,,,,,,,,,,,,,444.9978594999993,445.4250292999932,445.4250292999932,446.40519449999556,446.40519449999556,446.40519449999556,446.40519449999556,446.40519449999556,446.40519449999556,446.40519449999556,446.40519449999556,446.40519449999556,446.40519449999556,446.48491939999803,1,1,85.19933739998669,531.7069946999982,531.7069946999982,,,,,,,1,2,2023-02-20_17h57.39.072,Memory and Syntax,2022.2.5,71.82839908010429,
,,lu vode praz li,2,0,0,2,2,0,0,2,brocanto/stims/to_use/sentence70.png,"['brocanto/stims/to_use/sentence31.png', 'brocanto/stims/to_use/sentence65.png', 'brocanto/stims/to_use/sentence63.png', 'brocanto/stims/to_use/sentence68.png', 'brocanto/stims/to_use/sentence39.png', 'brocanto/stims/to_use/sentence14.png', 'brocanto/stims/to_use/sentence105.png', 'brocanto/stims/to_use/sentence103.png', 'brocanto/stims/to_use/sentence17.png', 'brocanto/stims/to_use/sentence12.png', 'brocanto/stims/to_use/sentence29.png', 'brocanto/stims/to_use/sentence107.png', 'brocanto/stims/to_use/sentence32.png', 'brocanto/stims/to_use/sentence26.png', 'brocanto/stims/to_use/sentence35.png', 'brocanto/stims/to_use/sentence79.png', 'brocanto/stims/to_use/sentence71.png', 'brocanto/stims/to_use/sentence75.png', 'brocanto/stims/to_use/sentence72.png', 'brocanto/stims/to_use/sentence36.png', 'brocanto/stims/to_use/sentence53.png', 'brocanto/stims/to_use/sentence69.png', 'brocanto/stims/to_use/sentence104.png', 'brocanto/stims/to_use/sentence89.png', 'brocanto/stims/to_use/sentence102.png', 'brocanto/stims/to_use/sentence44.png', 'brocanto/stims/to_use/sentence34.png']",,,,,0,0,0,0,,,,,,,,,,,,,,,,,,,,,,,,,,,,,0,0,0,0,0,0,0,0,0,11,11,11,,,,,,,,,,,,,,,,,,,,,,,,,,,,,,,,,,,,,,,,,,,,,,,,,,532.7178891999938,533.1447528999997,533.1447528999997,534.0901738999964,534.0901738999964,534.0901738999964,534.0901738999964,534.0901738999964,534.0901738999964,534.0901738999964,534.0901738999964,534.0901738999964,534.0901738999964,534.1702473999903,3,0,25.119942999997875,559.3140222999937,559.3140222999937,,,,,,,1,2,2023-02-20_17h57.39.072,Memory and Syntax,2022.2.5,71.82839908010429,
,,lu troise zayma li,2,0,0,2,2,0,0,2,brocanto/stims/to_use/sentence107.png,"['brocanto/stims/to_use/sentence31.png', 'brocanto/stims/to_use/sentence65.png', 'brocanto/stims/to_use/sentence63.png', 'brocanto/stims/to_use/sentence68.png', 'brocanto/stims/to_use/sentence39.png', 'brocanto/stims/to_use/sentence14.png', 'brocanto/stims/to_use/sentence105.png', 'brocanto/stims/to_use/sentence103.png', 'brocanto/stims/to_use/sentence17.png', 'brocanto/stims/to_use/sentence12.png', 'brocanto/stims/to_use/sentence29.png', 'brocanto/stims/to_use/sentence70.png', 'brocanto/stims/to_use/sentence32.png', 'brocanto/stims/to_use/sentence26.png', 'brocanto/stims/to_use/sentence35.png', 'brocanto/stims/to_use/sentence79.png', 'brocanto/stims/to_use/sentence71.png', 'brocanto/stims/to_use/sentence75.png', 'brocanto/stims/to_use/sentence72.png', 'brocanto/stims/to_use/sentence36.png', 'brocanto/stims/to_use/sentence53.png', 'brocanto/stims/to_use/sentence69.png', 'brocanto/stims/to_use/sentence104.png', 'brocanto/stims/to_use/sentence89.png', 'brocanto/stims/to_use/sentence102.png', 'brocanto/stims/to_use/sentence44.png', 'brocanto/stims/to_use/sentence34.png']",,,,,0,0,0,0,,,,,,,,,,,,,,,,,,,,,,,,,,,,,0,0,0,0,0,0,0,0,0,12,12,12,,,,,,,,,,,,,,,,,,,,,,,,,,,,,,,,,,,,,,,,,,,,,,,,,,560.3251747999893,560.7519302000001,560.7519302000001,561.7183224000037,561.7183224000037,561.7183224000037,561.7183224000037,561.7183224000037,561.7183224000037,561.7183224000037,561.7183224000037,561.7183224000037,561.7183224000037,561.7915230999934,2,1,69.36859379999805,631.1874206999928,631.1874206999928,,,,,,,1,2,2023-02-20_17h57.39.072,Memory and Syntax,2022.2.5,71.82839908010429,
,,lu neep nim li,2,0,0,2,2,0,0,2,brocanto/stims/to_use/sentence32.png,"['brocanto/stims/to_use/sentence31.png', 'brocanto/stims/to_use/sentence65.png', 'brocanto/stims/to_use/sentence63.png', 'brocanto/stims/to_use/sentence68.png', 'brocanto/stims/to_use/sentence39.png', 'brocanto/stims/to_use/sentence14.png', 'brocanto/stims/to_use/sentence105.png', 'brocanto/stims/to_use/sentence103.png', 'brocanto/stims/to_use/sentence17.png', 'brocanto/stims/to_use/sentence12.png', 'brocanto/stims/to_use/sentence29.png', 'brocanto/stims/to_use/sentence70.png', 'brocanto/stims/to_use/sentence107.png', 'brocanto/stims/to_use/sentence26.png', 'brocanto/stims/to_use/sentence35.png', 'brocanto/stims/to_use/sentence79.png', 'brocanto/stims/to_use/sentence71.png', 'brocanto/stims/to_use/sentence75.png', 'brocanto/stims/to_use/sentence72.png', 'brocanto/stims/to_use/sentence36.png', 'brocanto/stims/to_use/sentence53.png', 'brocanto/stims/to_use/sentence69.png', 'brocanto/stims/to_use/sentence104.png', 'brocanto/stims/to_use/sentence89.png', 'brocanto/stims/to_use/sentence102.png', 'brocanto/stims/to_use/sentence44.png', 'brocanto/stims/to_use/sentence34.png']",,,,,0,0,0,0,,,,,,,,,,,,,,,,,,,,,,,,,,,,,0,0,0,0,0,0,0,0,0,13,13,13,,,,,,,,,,,,,,,,,,,,,,,,,,,,,,,,,,,,,,,,,,,,,,,,,,632.1978723999928,632.6250815999956,632.6250815999956,633.6087951999943,633.6087951999943,633.6087951999943,633.6087951999943,633.6087951999943,633.6087951999943,633.6087951999943,633.6087951999943,633.6087951999943,633.6087951999943,633.6928088999994,1,1,10.645373899998958,644.3570059999911,644.3570059999911,,,,,,,1,2,2023-02-20_17h57.39.072,Memory and Syntax,2022.2.5,71.82839908010429,
,,klin lu neimo lu pleck,2,0,0,2,2,0,0,2,brocanto/stims/to_use/sentence26.png,"['brocanto/stims/to_use/sentence31.png', 'brocanto/stims/to_use/sentence65.png', 'brocanto/stims/to_use/sentence63.png', 'brocanto/stims/to_use/sentence68.png', 'brocanto/stims/to_use/sentence39.png', 'brocanto/stims/to_use/sentence14.png', 'brocanto/stims/to_use/sentence105.png', 'brocanto/stims/to_use/sentence103.png', 'brocanto/stims/to_use/sentence17.png', 'brocanto/stims/to_use/sentence12.png', 'brocanto/stims/to_use/sentence29.png', 'brocanto/stims/to_use/sentence70.png', 'brocanto/stims/to_use/sentence107.png', 'brocanto/stims/to_use/sentence32.png', 'brocanto/stims/to_use/sentence35.png', 'brocanto/stims/to_use/sentence79.png', 'brocanto/stims/to_use/sentence71.png', 'brocanto/stims/to_use/sentence75.png', 'brocanto/stims/to_use/sentence72.png', 'brocanto/stims/to_use/sentence36.png', 'brocanto/stims/to_use/sentence53.png', 'brocanto/stims/to_use/sentence69.png', 'brocanto/stims/to_use/sentence104.png', 'brocanto/stims/to_use/sentence89.png', 'brocanto/stims/to_use/sentence102.png', 'brocanto/stims/to_use/sentence44.png', 'brocanto/stims/to_use/sentence34.png']",,,,,0,0,0,0,,,,,,,,,,,,,,,,,,,,,,,,,,,,,0,0,0,0,0,0,0,0,0,14,14,14,,,,,,,,,,,,,,,,,,,,,,,,,,,,,,,,,,,,,,,,,,,,,,,,,,645.3679109999939,645.7950459999993,645.7950459999993,646.8045833999931,646.8045833999931,646.8045833999931,646.8045833999931,646.8045833999931,646.8045833999931,646.8045833999931,646.8045833999931,646.8045833999931,646.8045833999931,646.8843450999993,2,1,40.205741099998704,687.1134052999987,687.1134052999987,,,,,,,1,2,2023-02-20_17h57.39.072,Memory and Syntax,2022.2.5,71.82839908010429,
,,lu troise nim li,2,0,0,2,2,0,0,2,brocanto/stims/to_use/sentence35.png,"['brocanto/stims/to_use/sentence31.png', 'brocanto/stims/to_use/sentence65.png', 'brocanto/stims/to_use/sentence63.png', 'brocanto/stims/to_use/sentence68.png', 'brocanto/stims/to_use/sentence39.png', 'brocanto/stims/to_use/sentence14.png', 'brocanto/stims/to_use/sentence105.png', 'brocanto/stims/to_use/sentence103.png', 'brocanto/stims/to_use/sentence17.png', 'brocanto/stims/to_use/sentence12.png', 'brocanto/stims/to_use/sentence29.png', 'brocanto/stims/to_use/sentence70.png', 'brocanto/stims/to_use/sentence107.png', 'brocanto/stims/to_use/sentence32.png', 'brocanto/stims/to_use/sentence26.png', 'brocanto/stims/to_use/sentence79.png', 'brocanto/stims/to_use/sentence71.png', 'brocanto/stims/to_use/sentence75.png', 'brocanto/stims/to_use/sentence72.png', 'brocanto/stims/to_use/sentence36.png', 'brocanto/stims/to_use/sentence53.png', 'brocanto/stims/to_use/sentence69.png', 'brocanto/stims/to_use/sentence104.png', 'brocanto/stims/to_use/sentence89.png', 'brocanto/stims/to_use/sentence102.png', 'brocanto/stims/to_use/sentence44.png', 'brocanto/stims/to_use/sentence34.png']",,,,,0,0,0,0,,,,,,,,,,,,,,,,,,,,,,,,,,,,,0,0,0,0,0,0,0,0,0,15,15,15,,,,,,,,,,,,,,,,,,,,,,,,,,,,,,,,,,,,,,,,,,,,,,,,,,688.1242291999952,688.551501599999,688.551501599999,689.6099353000027,689.6099353000027,689.6099353000027,689.6099353000027,689.6099353000027,689.6099353000027,689.6099353000027,689.6099353000027,689.6099353000027,689.6099353000027,689.6907452000014,1,1,7.119502500005183,696.8378354000015,696.8378354000015,,,,,,,1,2,2023-02-20_17h57.39.072,Memory and Syntax,2022.2.5,71.82839908010429,
,,noyka lu neep lu blom,2,0,0,2,2,0,0,2,brocanto/stims/to_use/sentence79.png,"['brocanto/stims/to_use/sentence31.png', 'brocanto/stims/to_use/sentence65.png', 'brocanto/stims/to_use/sentence63.png', 'brocanto/stims/to_use/sentence68.png', 'brocanto/stims/to_use/sentence39.png', 'brocanto/stims/to_use/sentence14.png', 'brocanto/stims/to_use/sentence105.png', 'brocanto/stims/to_use/sentence103.png', 'brocanto/stims/to_use/sentence17.png', 'brocanto/stims/to_use/sentence12.png', 'brocanto/stims/to_use/sentence29.png', 'brocanto/stims/to_use/sentence70.png', 'brocanto/stims/to_use/sentence107.png', 'brocanto/stims/to_use/sentence32.png', 'brocanto/stims/to_use/sentence26.png', 'brocanto/stims/to_use/sentence35.png', 'brocanto/stims/to_use/sentence71.png', 'brocanto/stims/to_use/sentence75.png', 'brocanto/stims/to_use/sentence72.png', 'brocanto/stims/to_use/sentence36.png', 'brocanto/stims/to_use/sentence53.png', 'brocanto/stims/to_use/sentence69.png', 'brocanto/stims/to_use/sentence104.png', 'brocanto/stims/to_use/sentence89.png', 'brocanto/stims/to_use/sentence102.png', 'brocanto/stims/to_use/sentence44.png', 'brocanto/stims/to_use/sentence34.png']",,,,,0,0,0,0,,,,,,,,,,,,,,,,,,,,,,,,,,,,,0,0,0,0,0,0,0,0,0,16,16,16,,,,,,,,,,,,,,,,,,,,,,,,,,,,,,,,,,,,,,,,,,,,,,,,,,697.8488072000036,698.2759304999927,698.2759304999927,699.2448743999994,699.2448743999994,699.2448743999994,699.2448743999994,699.2448743999994,699.2448743999994,699.2448743999994,699.2448743999994,699.2448743999994,699.2448743999994,699.318643999999,2,1,9.759451699996134,709.0967506000015,709.0967506000015,,,,,,,1,2,2023-02-20_17h57.39.072,Memory and Syntax,2022.2.5,71.82839908010429,
,,lu troise praz li,2,0,0,2,2,0,0,2,brocanto/stims/to_use/sentence71.png,"['brocanto/stims/to_use/sentence31.png', 'brocanto/stims/to_use/sentence65.png', 'brocanto/stims/to_use/sentence63.png', 'brocanto/stims/to_use/sentence68.png', 'brocanto/stims/to_use/sentence39.png', 'brocanto/stims/to_use/sentence14.png', 'brocanto/stims/to_use/sentence105.png', 'brocanto/stims/to_use/sentence103.png', 'brocanto/stims/to_use/sentence17.png', 'brocanto/stims/to_use/sentence12.png', 'brocanto/stims/to_use/sentence29.png', 'brocanto/stims/to_use/sentence70.png', 'brocanto/stims/to_use/sentence107.png', 'brocanto/stims/to_use/sentence32.png', 'brocanto/stims/to_use/sentence26.png', 'brocanto/stims/to_use/sentence35.png', 'brocanto/stims/to_use/sentence79.png', 'brocanto/stims/to_use/sentence75.png', 'brocanto/stims/to_use/sentence72.png', 'brocanto/stims/to_use/sentence36.png', 'brocanto/stims/to_use/sentence53.png', 'brocanto/stims/to_use/sentence69.png', 'brocanto/stims/to_use/sentence104.png', 'brocanto/stims/to_use/sentence89.png', 'brocanto/stims/to_use/sentence102.png', 'brocanto/stims/to_use/sentence44.png', 'brocanto/stims/to_use/sentence34.png']",,,,,0,0,0,0,,,,,,,,,,,,,,,,,,,,,,,,,,,,,0,0,0,0,0,0,0,0,0,17,17,17,,,,,,,,,,,,,,,,,,,,,,,,,,,,,,,,,,,,,,,,,,,,,,,,,,710.1076878000022,710.5348933999921,710.5348933999921,711.4982583999954,711.4982583999954,711.4982583999954,711.4982583999954,711.4982583999954,711.4982583999954,711.4982583999954,711.4982583999954,711.4982583999954,711.4982583999954,711.5741370999895,2,1,7.4543413999927,719.0490064999904,719.0490064999904,,,,,,,1,2,2023-02-20_17h57.39.072,Memory and Syntax,2022.2.5,71.82839908010429,
,,noyka lu pleck lu vode,2,0,0,2,2,0,0,2,brocanto/stims/to_use/sentence75.png,"['brocanto/stims/to_use/sentence31.png', 'brocanto/stims/to_use/sentence65.png', 'brocanto/stims/to_use/sentence63.png', 'brocanto/stims/to_use/sentence68.png', 'brocanto/stims/to_use/sentence39.png', 'brocanto/stims/to_use/sentence14.png', 'brocanto/stims/to_use/sentence105.png', 'brocanto/stims/to_use/sentence103.png', 'brocanto/stims/to_use/sentence17.png', 'brocanto/stims/to_use/sentence12.png', 'brocanto/stims/to_use/sentence29.png', 'brocanto/stims/to_use/sentence70.png', 'brocanto/stims/to_use/sentence107.png', 'brocanto/stims/to_use/sentence32.png', 'brocanto/stims/to_use/sentence26.png', 'brocanto/stims/to_use/sentence35.png', 'brocanto/stims/to_use/sentence79.png', 'brocanto/stims/to_use/sentence71.png', 'brocanto/stims/to_use/sentence72.png', 'brocanto/stims/to_use/sentence36.png', 'brocanto/stims/to_use/sentence53.png', 'brocanto/stims/to_use/sentence69.png', 'brocanto/stims/to_use/sentence104.png', 'brocanto/stims/to_use/sentence89.png', 'brocanto/stims/to_use/sentence102.png', 'brocanto/stims/to_use/sentence44.png', 'brocanto/stims/to_use/sentence34.png']",,,,,0,0,0,0,,,,,,,,,,,,,,,,,,,,,,,,,,,,,0,0,0,0,0,0,0,0,0,18,18,18,,,,,,,,,,,,,,,,,,,,,,,,,,,,,,,,,,,,,,,,,,,,,,,,,,720.0599618999986,720.4871009999915,720.4871009999915,721.4865439999994,721.4865439999994,721.4865439999994,721.4865439999994,721.4865439999994,721.4865439999994,721.4865439999994,721.4865439999994,721.4865439999994,721.4865439999994,721.5691713999986,3,1,9.782897999990382,731.3790837999986,731.3790837999986,,,,,,,1,2,2023-02-20_17h57.39.072,Memory and Syntax,2022.2.5,71.82839908010429,
,,lu neimo praz li,2,0,0,2,2,0,0,2,brocanto/stims/to_use/sentence72.png,"['brocanto/stims/to_use/sentence31.png', 'brocanto/stims/to_use/sentence65.png', 'brocanto/stims/to_use/sentence63.png', 'brocanto/stims/to_use/sentence68.png', 'brocanto/stims/to_use/sentence39.png', 'brocanto/stims/to_use/sentence14.png', 'brocanto/stims/to_use/sentence105.png', 'brocanto/stims/to_use/sentence103.png', 'brocanto/stims/to_use/sentence17.png', 'brocanto/stims/to_use/sentence12.png', 'brocanto/stims/to_use/sentence29.png', 'brocanto/stims/to_use/sentence70.png', 'brocanto/stims/to_use/sentence107.png', 'brocanto/stims/to_use/sentence32.png', 'brocanto/stims/to_use/sentence26.png', 'brocanto/stims/to_use/sentence35.png', 'brocanto/stims/to_use/sentence79.png', 'brocanto/stims/to_use/sentence71.png', 'brocanto/stims/to_use/sentence75.png', 'brocanto/stims/to_use/sentence36.png', 'brocanto/stims/to_use/sentence53.png', 'brocanto/stims/to_use/sentence69.png', 'brocanto/stims/to_use/sentence104.png', 'brocanto/stims/to_use/sentence89.png', 'brocanto/stims/to_use/sentence102.png', 'brocanto/stims/to_use/sentence44.png', 'brocanto/stims/to_use/sentence34.png']",,,,,0,0,0,0,,,,,,,,,,,,,,,,,,,,,,,,,,,,,0,0,0,0,0,0,0,0,0,19,19,19,,,,,,,,,,,,,,,,,,,,,,,,,,,,,,,,,,,,,,,,,,,,,,,,,,732.390004300003,732.8170851000032,732.8170851000032,733.7949989999906,733.7949989999906,733.7949989999906,733.7949989999906,733.7949989999906,733.7949989999906,733.7949989999906,733.7949989999906,733.7949989999906,733.7949989999906,733.8706244999921,3,1,10.585390799999004,744.4778782999929,744.4778782999929,,,,,,,1,2,2023-02-20_17h57.39.072,Memory and Syntax,2022.2.5,71.82839908010429,
,,lu neimo nim li,2,0,0,2,2,0,0,2,brocanto/stims/to_use/sentence36.png,"['brocanto/stims/to_use/sentence31.png', 'brocanto/stims/to_use/sentence65.png', 'brocanto/stims/to_use/sentence63.png', 'brocanto/stims/to_use/sentence68.png', 'brocanto/stims/to_use/sentence39.png', 'brocanto/stims/to_use/sentence14.png', 'brocanto/stims/to_use/sentence105.png', 'brocanto/stims/to_use/sentence103.png', 'brocanto/stims/to_use/sentence17.png', 'brocanto/stims/to_use/sentence12.png', 'brocanto/stims/to_use/sentence29.png', 'brocanto/stims/to_use/sentence70.png', 'brocanto/stims/to_use/sentence107.png', 'brocanto/stims/to_use/sentence32.png', 'brocanto/stims/to_use/sentence26.png', 'brocanto/stims/to_use/sentence35.png', 'brocanto/stims/to_use/sentence79.png', 'brocanto/stims/to_use/sentence71.png', 'brocanto/stims/to_use/sentence75.png', 'brocanto/stims/to_use/sentence72.png', 'brocanto/stims/to_use/sentence53.png', 'brocanto/stims/to_use/sentence69.png', 'brocanto/stims/to_use/sentence104.png', 'brocanto/stims/to_use/sentence89.png', 'brocanto/stims/to_use/sentence102.png', 'brocanto/stims/to_use/sentence44.png', 'brocanto/stims/to_use/sentence34.png']",,,,,0,0,0,0,,,,,,,,,,,,,,,,,,,,,,,,,,,,,0,0,0,0,0,0,0,0,0,20,20,20,,,,,,,,,,,,,,,,,,,,,,,,,,,,,,,,,,,,,,,,,,,,,,,,,,745.4887441000028,745.9186778000003,745.9186778000003,746.8965274999937,746.8965274999937,746.8965274999937,746.8965274999937,746.8965274999937,746.8965274999937,746.8965274999937,746.8965274999937,746.8965274999937,746.8965274999937,746.9839301000029,3,1,75.46030520000204,822.4588396000036,822.4588396000036,,,,,,,1,2,2023-02-20_17h57.39.072,Memory and Syntax,2022.2.5,71.82839908010429,
,,yab lu vode lu neep,2,0,0,2,2,0,0,2,brocanto/stims/to_use/sentence53.png,"['brocanto/stims/to_use/sentence31.png', 'brocanto/stims/to_use/sentence65.png', 'brocanto/stims/to_use/sentence63.png', 'brocanto/stims/to_use/sentence68.png', 'brocanto/stims/to_use/sentence39.png', 'brocanto/stims/to_use/sentence14.png', 'brocanto/stims/to_use/sentence105.png', 'brocanto/stims/to_use/sentence103.png', 'brocanto/stims/to_use/sentence17.png', 'brocanto/stims/to_use/sentence12.png', 'brocanto/stims/to_use/sentence29.png', 'brocanto/stims/to_use/sentence70.png', 'brocanto/stims/to_use/sentence107.png', 'brocanto/stims/to_use/sentence32.png', 'brocanto/stims/to_use/sentence26.png', 'brocanto/stims/to_use/sentence35.png', 'brocanto/stims/to_use/sentence79.png', 'brocanto/stims/to_use/sentence71.png', 'brocanto/stims/to_use/sentence75.png', 'brocanto/stims/to_use/sentence72.png', 'brocanto/stims/to_use/sentence36.png', 'brocanto/stims/to_use/sentence69.png', 'brocanto/stims/to_use/sentence104.png', 'brocanto/stims/to_use/sentence89.png', 'brocanto/stims/to_use/sentence102.png', 'brocanto/stims/to_use/sentence44.png', 'brocanto/stims/to_use/sentence34.png']",,,,,0,0,0,0,,,,,,,,,,,,,,,,,,,,,,,,,,,,,0,0,0,0,0,0,0,0,0,21,21,21,,,,,,,,,,,,,,,,,,,,,,,,,,,,,,,,,,,,,,,,,,,,,,,,,,823.4698630999919,823.8969970000035,823.8969970000035,824.9114417999954,824.9114417999954,824.9114417999954,824.9114417999954,824.9114417999954,824.9114417999954,824.9114417999954,824.9114417999954,824.9114417999954,824.9114417999954,824.9933606999984,3,1,33.074748400002136,858.0966324000037,858.0966324000037,,,,,,,1,2,2023-02-20_17h57.39.072,Memory and Syntax,2022.2.5,71.82839908010429,
,,lu blom praz li,2,0,0,2,2,0,0,2,brocanto/stims/to_use/sentence69.png,"['brocanto/stims/to_use/sentence31.png', 'brocanto/stims/to_use/sentence65.png', 'brocanto/stims/to_use/sentence63.png', 'brocanto/stims/to_use/sentence68.png', 'brocanto/stims/to_use/sentence39.png', 'brocanto/stims/to_use/sentence14.png', 'brocanto/stims/to_use/sentence105.png', 'brocanto/stims/to_use/sentence103.png', 'brocanto/stims/to_use/sentence17.png', 'brocanto/stims/to_use/sentence12.png', 'brocanto/stims/to_use/sentence29.png', 'brocanto/stims/to_use/sentence70.png', 'brocanto/stims/to_use/sentence107.png', 'brocanto/stims/to_use/sentence32.png', 'brocanto/stims/to_use/sentence26.png', 'brocanto/stims/to_use/sentence35.png', 'brocanto/stims/to_use/sentence79.png', 'brocanto/stims/to_use/sentence71.png', 'brocanto/stims/to_use/sentence75.png', 'brocanto/stims/to_use/sentence72.png', 'brocanto/stims/to_use/sentence36.png', 'brocanto/stims/to_use/sentence53.png', 'brocanto/stims/to_use/sentence104.png', 'brocanto/stims/to_use/sentence89.png', 'brocanto/stims/to_use/sentence102.png', 'brocanto/stims/to_use/sentence44.png', 'brocanto/stims/to_use/sentence34.png']",,,,,0,0,0,0,,,,,,,,,,,,,,,,,,,,,,,,,,,,,0,0,0,0,0,0,0,0,0,22,22,22,,,,,,,,,,,,,,,,,,,,,,,,,,,,,,,,,,,,,,,,,,,,,,,,,,859.1074765999947,859.5344405999931,859.5344405999931,860.4857134999911,860.4857134999911,860.4857134999911,860.4857134999911,860.4857134999911,860.4857134999911,860.4857134999911,860.4857134999911,860.4857134999911,860.4857134999911,860.5594389000034,4,1,7.18855779999285,867.7638116000016,867.7638116000016,,,,,,,1,2,2023-02-20_17h57.39.072,Memory and Syntax,2022.2.5,71.82839908010429,
,,lu neep zayma li,2,0,0,2,2,0,0,2,brocanto/stims/to_use/sentence104.png,"['brocanto/stims/to_use/sentence31.png', 'brocanto/stims/to_use/sentence65.png', 'brocanto/stims/to_use/sentence63.png', 'brocanto/stims/to_use/sentence68.png', 'brocanto/stims/to_use/sentence39.png', 'brocanto/stims/to_use/sentence14.png', 'brocanto/stims/to_use/sentence105.png', 'brocanto/stims/to_use/sentence103.png', 'brocanto/stims/to_use/sentence17.png', 'brocanto/stims/to_use/sentence12.png', 'brocanto/stims/to_use/sentence29.png', 'brocanto/stims/to_use/sentence70.png', 'brocanto/stims/to_use/sentence107.png', 'brocanto/stims/to_use/sentence32.png', 'brocanto/stims/to_use/sentence26.png', 'brocanto/stims/to_use/sentence35.png', 'brocanto/stims/to_use/sentence79.png', 'brocanto/stims/to_use/sentence71.png', 'brocanto/stims/to_use/sentence75.png', 'brocanto/stims/to_use/sentence72.png', 'brocanto/stims/to_use/sentence36.png', 'brocanto/stims/to_use/sentence53.png', 'brocanto/stims/to_use/sentence69.png', 'brocanto/stims/to_use/sentence89.png', 'brocanto/stims/to_use/sentence102.png', 'brocanto/stims/to_use/sentence44.png', 'brocanto/stims/to_use/sentence34.png']",,,,,0,0,0,0,,,,,,,,,,,,,,,,,,,,,,,,,,,,,0,0,0,0,0,0,0,0,0,23,23,23,,,,,,,,,,,,,,,,,,,,,,,,,,,,,,,,,,,,,,,,,,,,,,,,,,868.7746793999977,869.2019004000031,869.2019004000031,870.249428199997,870.249428199997,870.249428199997,870.249428199997,870.249428199997,870.249428199997,870.249428199997,870.249428199997,870.249428199997,870.249428199997,870.3269740999967,1,1,74.93691679999756,945.2892565999937,945.2892565999937,,,,,,,1,2,2023-02-20_17h57.39.072,Memory and Syntax,2022.2.5,71.82839908010429,
,,noyka lu vode lu neep,2,0,0,2,2,0,0,2,brocanto/stims/to_use/sentence89.png,"['brocanto/stims/to_use/sentence31.png', 'brocanto/stims/to_use/sentence65.png', 'brocanto/stims/to_use/sentence63.png', 'brocanto/stims/to_use/sentence68.png', 'brocanto/stims/to_use/sentence39.png', 'brocanto/stims/to_use/sentence14.png', 'brocanto/stims/to_use/sentence105.png', 'brocanto/stims/to_use/sentence103.png', 'brocanto/stims/to_use/sentence17.png', 'brocanto/stims/to_use/sentence12.png', 'brocanto/stims/to_use/sentence29.png', 'brocanto/stims/to_use/sentence70.png', 'brocanto/stims/to_use/sentence107.png', 'brocanto/stims/to_use/sentence32.png', 'brocanto/stims/to_use/sentence26.png', 'brocanto/stims/to_use/sentence35.png', 'brocanto/stims/to_use/sentence79.png', 'brocanto/stims/to_use/sentence71.png', 'brocanto/stims/to_use/sentence75.png', 'brocanto/stims/to_use/sentence72.png', 'brocanto/stims/to_use/sentence36.png', 'brocanto/stims/to_use/sentence53.png', 'brocanto/stims/to_use/sentence69.png', 'brocanto/stims/to_use/sentence104.png', 'brocanto/stims/to_use/sentence102.png', 'brocanto/stims/to_use/sentence44.png', 'brocanto/stims/to_use/sentence34.png']",,,,,0,0,0,0,,,,,,,,,,,,,,,,,,,,,,,,,,,,,0,0,0,0,0,0,0,0,0,24,24,24,,,,,,,,,,,,,,,,,,,,,,,,,,,,,,,,,,,,,,,,,,,,,,,,,,946.3001606000034,946.7273290000012,946.7273290000012,947.7394161999982,947.7394161999982,947.7394161999982,947.7394161999982,947.7394161999982,947.7394161999982,947.7394161999982,947.7394161999982,947.7394161999982,947.7394161999982,947.8107213999901,3,1,11.025106399989454,958.8581248999981,958.8581248999981,,,,,,,1,2,2023-02-20_17h57.39.072,Memory and Syntax,2022.2.5,71.82839908010429,
,,noyka lu neimo lu troise,2,0,0,2,2,0,0,2,brocanto/stims/to_use/sentence102.png,"['brocanto/stims/to_use/sentence31.png', 'brocanto/stims/to_use/sentence65.png', 'brocanto/stims/to_use/sentence63.png', 'brocanto/stims/to_use/sentence68.png', 'brocanto/stims/to_use/sentence39.png', 'brocanto/stims/to_use/sentence14.png', 'brocanto/stims/to_use/sentence105.png', 'brocanto/stims/to_use/sentence103.png', 'brocanto/stims/to_use/sentence17.png', 'brocanto/stims/to_use/sentence12.png', 'brocanto/stims/to_use/sentence29.png', 'brocanto/stims/to_use/sentence70.png', 'brocanto/stims/to_use/sentence107.png', 'brocanto/stims/to_use/sentence32.png', 'brocanto/stims/to_use/sentence26.png', 'brocanto/stims/to_use/sentence35.png', 'brocanto/stims/to_use/sentence79.png', 'brocanto/stims/to_use/sentence71.png', 'brocanto/stims/to_use/sentence75.png', 'brocanto/stims/to_use/sentence72.png', 'brocanto/stims/to_use/sentence36.png', 'brocanto/stims/to_use/sentence53.png', 'brocanto/stims/to_use/sentence69.png', 'brocanto/stims/to_use/sentence104.png', 'brocanto/stims/to_use/sentence89.png', 'brocanto/stims/to_use/sentence44.png', 'brocanto/stims/to_use/sentence34.png']",,,,,0,0,0,0,,,,,,,,,,,,,,,,,,,,,,,,,,,,,0,0,0,0,0,0,0,0,0,25,25,25,,,,,,,,,,,,,,,,,,,,,,,,,,,,,,,,,,,,,,,,,,,,,,,,,,959.8688794999907,960.2959884000011,960.2959884000011,961.2602781000023,961.2602781000023,961.2602781000023,961.2602781000023,961.2602781000023,961.2602781000023,961.2602781000023,961.2602781000023,961.2602781000023,961.2602781000023,961.3352465999924,3,1,11.648591799996211,973.0104291000025,973.0104291000025,,,,,,,1,2,2023-02-20_17h57.39.072,Memory and Syntax,2022.2.5,71.82839908010429,
,,yab lu neep lu vode,2,0,0,2,2,0,0,2,brocanto/stims/to_use/sentence44.png,"['brocanto/stims/to_use/sentence31.png', 'brocanto/stims/to_use/sentence65.png', 'brocanto/stims/to_use/sentence63.png', 'brocanto/stims/to_use/sentence68.png', 'brocanto/stims/to_use/sentence39.png', 'brocanto/stims/to_use/sentence14.png', 'brocanto/stims/to_use/sentence105.png', 'brocanto/stims/to_use/sentence103.png', 'brocanto/stims/to_use/sentence17.png', 'brocanto/stims/to_use/sentence12.png', 'brocanto/stims/to_use/sentence29.png', 'brocanto/stims/to_use/sentence70.png', 'brocanto/stims/to_use/sentence107.png', 'brocanto/stims/to_use/sentence32.png', 'brocanto/stims/to_use/sentence26.png', 'brocanto/stims/to_use/sentence35.png', 'brocanto/stims/to_use/sentence79.png', 'brocanto/stims/to_use/sentence71.png', 'brocanto/stims/to_use/sentence75.png', 'brocanto/stims/to_use/sentence72.png', 'brocanto/stims/to_use/sentence36.png', 'brocanto/stims/to_use/sentence53.png', 'brocanto/stims/to_use/sentence69.png', 'brocanto/stims/to_use/sentence104.png', 'brocanto/stims/to_use/sentence89.png', 'brocanto/stims/to_use/sentence102.png', 'brocanto/stims/to_use/sentence34.png']",,,,,0,0,0,0,,,,,,,,,,,,,,,,,,,,,,,,,,,,,0,0,0,0,0,0,0,0,0,26,26,26,,,,,,,,,,,,,,,,,,,,,,,,,,,,,,,,,,,,,,,,,,,,,,,,,,974.0212439000024,974.4485546999931,974.4485546999931,975.4060751999932,975.4060751999932,975.4060751999932,975.4060751999932,975.4060751999932,975.4060751999932,975.4060751999932,975.4060751999932,975.4060751999932,975.4060751999932,975.4879639999999,3,1,47.265943300008075,1022.7718383000029,1022.7718383000029,,,,,,,1,2,2023-02-20_17h57.39.072,Memory and Syntax,2022.2.5,71.82839908010429,
,,lu vode nim li,2,0,0,2,2,0,0,2,brocanto/stims/to_use/sentence34.png,"['brocanto/stims/to_use/sentence31.png', 'brocanto/stims/to_use/sentence65.png', 'brocanto/stims/to_use/sentence63.png', 'brocanto/stims/to_use/sentence68.png', 'brocanto/stims/to_use/sentence39.png', 'brocanto/stims/to_use/sentence14.png', 'brocanto/stims/to_use/sentence105.png', 'brocanto/stims/to_use/sentence103.png', 'brocanto/stims/to_use/sentence17.png', 'brocanto/stims/to_use/sentence12.png', 'brocanto/stims/to_use/sentence29.png', 'brocanto/stims/to_use/sentence70.png', 'brocanto/stims/to_use/sentence107.png', 'brocanto/stims/to_use/sentence32.png', 'brocanto/stims/to_use/sentence26.png', 'brocanto/stims/to_use/sentence35.png', 'brocanto/stims/to_use/sentence79.png', 'brocanto/stims/to_use/sentence71.png', 'brocanto/stims/to_use/sentence75.png', 'brocanto/stims/to_use/sentence72.png', 'brocanto/stims/to_use/sentence36.png', 'brocanto/stims/to_use/sentence53.png', 'brocanto/stims/to_use/sentence69.png', 'brocanto/stims/to_use/sentence104.png', 'brocanto/stims/to_use/sentence89.png', 'brocanto/stims/to_use/sentence102.png', 'brocanto/stims/to_use/sentence44.png']",,,,,0,0,0,0,,,,,,,,,,,,,,,,,,,,,,,,,,,,,0,0,0,0,0,0,0,0,0,27,27,27,,,,,,,,,,,,,,,,,,,,,,,,,,,,,,,,,,,,,,,,,,,,,,,,,,1023.7828332999925,1024.2102281999978,1024.2102281999978,1025.1898106000008,1025.1898106000008,1025.1898106000008,1025.1898106000008,1025.1898106000008,1025.1898106000008,1025.1898106000008,1025.1898106000008,1025.1898106000008,1025.1898106000008,1025.2634007000015,2,1,5.478534499998204,1030.759311899994,1030.759311899994,,,,,,,1,2,2023-02-20_17h57.39.072,Memory and Syntax,2022.2.5,71.82839908010429,
,,lu pleck nim li,2,0,0,2,2,0,0,2,brocanto/stims/to_use/sentence31.png,"['brocanto/stims/to_use/sentence65.png', 'brocanto/stims/to_use/sentence63.png', 'brocanto/stims/to_use/sentence68.png', 'brocanto/stims/to_use/sentence39.png', 'brocanto/stims/to_use/sentence14.png', 'brocanto/stims/to_use/sentence105.png', 'brocanto/stims/to_use/sentence103.png', 'brocanto/stims/to_use/sentence17.png', 'brocanto/stims/to_use/sentence12.png', 'brocanto/stims/to_use/sentence29.png', 'brocanto/stims/to_use/sentence70.png', 'brocanto/stims/to_use/sentence107.png', 'brocanto/stims/to_use/sentence32.png', 'brocanto/stims/to_use/sentence26.png', 'brocanto/stims/to_use/sentence35.png', 'brocanto/stims/to_use/sentence79.png', 'brocanto/stims/to_use/sentence71.png', 'brocanto/stims/to_use/sentence75.png', 'brocanto/stims/to_use/sentence72.png', 'brocanto/stims/to_use/sentence36.png', 'brocanto/stims/to_use/sentence53.png', 'brocanto/stims/to_use/sentence69.png', 'brocanto/stims/to_use/sentence104.png', 'brocanto/stims/to_use/sentence89.png', 'brocanto/stims/to_use/sentence102.png', 'brocanto/stims/to_use/sentence44.png', 'brocanto/stims/to_use/sentence34.png']",,,,,0,0,0,0,,,,,,,,,,,,,,,,,,,,,,,,,,,,,0,0,0,0,1,0,1,0,0,0,0,0,,,,,,,,,,,,,,,,,,,,,,,,,,,,,,,,,,,,,,,,,,,,1031.7703704000014,1031.7703704000014,1031.7703704000014,1031.7703704000014,1031.7703704000014,1031.7703704000014,1033.5520657000015,1033.9772048000013,1033.9772048000013,1034.9544469999964,1034.9544469999964,1034.9544469999964,1034.9544469999964,1034.9544469999964,1034.9544469999964,1034.9544469999964,1034.9544469999964,1034.9544469999964,1034.9544469999964,1035.0319527999964,4,1,8.68377820000751,1043.7301288000017,1043.7301288000017,,,,,,,1,2,2023-02-20_17h57.39.072,Memory and Syntax,2022.2.5,71.82839908010429,
,,yab lu neimo lu vode,2,0,0,2,2,0,0,2,brocanto/stims/to_use/sentence65.png,"['brocanto/stims/to_use/sentence31.png', 'brocanto/stims/to_use/sentence63.png', 'brocanto/stims/to_use/sentence68.png', 'brocanto/stims/to_use/sentence39.png', 'brocanto/stims/to_use/sentence14.png', 'brocanto/stims/to_use/sentence105.png', 'brocanto/stims/to_use/sentence103.png', 'brocanto/stims/to_use/sentence17.png', 'brocanto/stims/to_use/sentence12.png', 'brocanto/stims/to_use/sentence29.png', 'brocanto/stims/to_use/sentence70.png', 'brocanto/stims/to_use/sentence107.png', 'brocanto/stims/to_use/sentence32.png', 'brocanto/stims/to_use/sentence26.png', 'brocanto/stims/to_use/sentence35.png', 'brocanto/stims/to_use/sentence79.png', 'brocanto/stims/to_use/sentence71.png', 'brocanto/stims/to_use/sentence75.png', 'brocanto/stims/to_use/sentence72.png', 'brocanto/stims/to_use/sentence36.png', 'brocanto/stims/to_use/sentence53.png', 'brocanto/stims/to_use/sentence69.png', 'brocanto/stims/to_use/sentence104.png', 'brocanto/stims/to_use/sentence89.png', 'brocanto/stims/to_use/sentence102.png', 'brocanto/stims/to_use/sentence44.png', 'brocanto/stims/to_use/sentence34.png']",,,,,0,0,0,0,,,,,,,,,,,,,,,,,,,,,,,,,,,,,0,0,0,0,1,0,1,0,0,1,1,1,,,,,,,,,,,,,,,,,,,,,,,,,,,,,,,,,,,,,,,,,,,,,,,,,,1044.7409617999947,1045.168116300003,1045.168116300003,1046.222815599991,1046.222815599991,1046.222815599991,1046.222815599991,1046.222815599991,1046.222815599991,1046.222815599991,1046.222815599991,1046.222815599991,1046.222815599991,1046.30248269999,2,1,30.69726920001267,1077.0183663999924,1077.0183663999924,,,,,,,1,2,2023-02-20_17h57.39.072,Memory and Syntax,2022.2.5,71.82839908010429,
,,yab lu neimo lu neep,2,0,0,2,2,0,0,2,brocanto/stims/to_use/sentence63.png,"['brocanto/stims/to_use/sentence31.png', 'brocanto/stims/to_use/sentence65.png', 'brocanto/stims/to_use/sentence68.png', 'brocanto/stims/to_use/sentence39.png', 'brocanto/stims/to_use/sentence14.png', 'brocanto/stims/to_use/sentence105.png', 'brocanto/stims/to_use/sentence103.png', 'brocanto/stims/to_use/sentence17.png', 'brocanto/stims/to_use/sentence12.png', 'brocanto/stims/to_use/sentence29.png', 'brocanto/stims/to_use/sentence70.png', 'brocanto/stims/to_use/sentence107.png', 'brocanto/stims/to_use/sentence32.png', 'brocanto/stims/to_use/sentence26.png', 'brocanto/stims/to_use/sentence35.png', 'brocanto/stims/to_use/sentence79.png', 'brocanto/stims/to_use/sentence71.png', 'brocanto/stims/to_use/sentence75.png', 'brocanto/stims/to_use/sentence72.png', 'brocanto/stims/to_use/sentence36.png', 'brocanto/stims/to_use/sentence53.png', 'brocanto/stims/to_use/sentence69.png', 'brocanto/stims/to_use/sentence104.png', 'brocanto/stims/to_use/sentence89.png', 'brocanto/stims/to_use/sentence102.png', 'brocanto/stims/to_use/sentence44.png', 'brocanto/stims/to_use/sentence34.png']",,,,,0,0,0,0,,,,,,,,,,,,,,,,,,,,,,,,,,,,,0,0,0,0,1,0,1,0,0,2,2,2,,,,,,,,,,,,,,,,,,,,,,,,,,,,,,,,,,,,,,,,,,,,,,,,,,1078.0292962999956,1078.4567699999898,1078.4567699999898,1079.4774724000017,1079.4774724000017,1079.4774724000017,1079.4774724000017,1079.4774724000017,1079.4774724000017,1079.4774724000017,1079.4774724000017,1079.4774724000017,1079.4774724000017,1079.5582594000007,4,1,11.063444900006289,1090.644076800003,1090.644076800003,,,,,,,1,2,2023-02-20_17h57.39.072,Memory and Syntax,2022.2.5,71.82839908010429,
,,lu neep praz li,2,0,0,2,2,0,0,2,brocanto/stims/to_use/sentence68.png,"['brocanto/stims/to_use/sentence31.png', 'brocanto/stims/to_use/sentence65.png', 'brocanto/stims/to_use/sentence63.png', 'brocanto/stims/to_use/sentence39.png', 'brocanto/stims/to_use/sentence14.png', 'brocanto/stims/to_use/sentence105.png', 'brocanto/stims/to_use/sentence103.png', 'brocanto/stims/to_use/sentence17.png', 'brocanto/stims/to_use/sentence12.png', 'brocanto/stims/to_use/sentence29.png', 'brocanto/stims/to_use/sentence70.png', 'brocanto/stims/to_use/sentence107.png', 'brocanto/stims/to_use/sentence32.png', 'brocanto/stims/to_use/sentence26.png', 'brocanto/stims/to_use/sentence35.png', 'brocanto/stims/to_use/sentence79.png', 'brocanto/stims/to_use/sentence71.png', 'brocanto/stims/to_use/sentence75.png', 'brocanto/stims/to_use/sentence72.png', 'brocanto/stims/to_use/sentence36.png', 'brocanto/stims/to_use/sentence53.png', 'brocanto/stims/to_use/sentence69.png', 'brocanto/stims/to_use/sentence104.png', 'brocanto/stims/to_use/sentence89.png', 'brocanto/stims/to_use/sentence102.png', 'brocanto/stims/to_use/sentence44.png', 'brocanto/stims/to_use/sentence34.png']",,,,,0,0,0,0,,,,,,,,,,,,,,,,,,,,,,,,,,,,,0,0,0,0,1,0,1,0,0,3,3,3,,,,,,,,,,,,,,,,,,,,,,,,,,,,,,,,,,,,,,,,,,,,,,,,,,1091.65485359999,1092.0819595999928,1092.0819595999928,1093.1050390000019,1093.1050390000019,1093.1050390000019,1093.1050390000019,1093.1050390000019,1093.1050390000019,1093.1050390000019,1093.1050390000019,1093.1050390000019,1093.1050390000019,1093.17915299999,1,1,5.3949544000061,1098.588990999997,1098.588990999997,,,,,,,1,2,2023-02-20_17h57.39.072,Memory and Syntax,2022.2.5,71.82839908010429,
,,yab lu pleck lu vode,2,0,0,2,2,0,0,2,brocanto/stims/to_use/sentence39.png,"['brocanto/stims/to_use/sentence31.png', 'brocanto/stims/to_use/sentence65.png', 'brocanto/stims/to_use/sentence63.png', 'brocanto/stims/to_use/sentence68.png', 'brocanto/stims/to_use/sentence14.png', 'brocanto/stims/to_use/sentence105.png', 'brocanto/stims/to_use/sentence103.png', 'brocanto/stims/to_use/sentence17.png', 'brocanto/stims/to_use/sentence12.png', 'brocanto/stims/to_use/sentence29.png', 'brocanto/stims/to_use/sentence70.png', 'brocanto/stims/to_use/sentence107.png', 'brocanto/stims/to_use/sentence32.png', 'brocanto/stims/to_use/sentence26.png', 'brocanto/stims/to_use/sentence35.png', 'brocanto/stims/to_use/sentence79.png', 'brocanto/stims/to_use/sentence71.png', 'brocanto/stims/to_use/sentence75.png', 'brocanto/stims/to_use/sentence72.png', 'brocanto/stims/to_use/sentence36.png', 'brocanto/stims/to_use/sentence53.png', 'brocanto/stims/to_use/sentence69.png', 'brocanto/stims/to_use/sentence104.png', 'brocanto/stims/to_use/sentence89.png', 'brocanto/stims/to_use/sentence102.png', 'brocanto/stims/to_use/sentence44.png', 'brocanto/stims/to_use/sentence34.png']",,,,,0,0,0,0,,,,,,,,,,,,,,,,,,,,,,,,,,,,,0,0,0,0,1,0,1,0,0,4,4,4,,,,,,,,,,,,,,,,,,,,,,,,,,,,,,,,,,,,,,,,,,,,,,,,,,1099.5996677999938,1100.0268040999945,1100.0268040999945,1101.0355972999969,1101.0355972999969,1101.0355972999969,1101.0355972999969,1101.0355972999969,1101.0355972999969,1101.0355972999969,1101.0355972999969,1101.0355972999969,1101.0355972999969,1101.1135416000034,3,1,5.594463399989763,1106.7327751999983,1106.7327751999983,,,,,,,1,2,2023-02-20_17h57.39.072,Memory and Syntax,2022.2.5,71.82839908010429,
,,klin lu blom lu troise,2,0,0,2,2,0,0,2,brocanto/stims/to_use/sentence14.png,"['brocanto/stims/to_use/sentence31.png', 'brocanto/stims/to_use/sentence65.png', 'brocanto/stims/to_use/sentence63.png', 'brocanto/stims/to_use/sentence68.png', 'brocanto/stims/to_use/sentence39.png', 'brocanto/stims/to_use/sentence105.png', 'brocanto/stims/to_use/sentence103.png', 'brocanto/stims/to_use/sentence17.png', 'brocanto/stims/to_use/sentence12.png', 'brocanto/stims/to_use/sentence29.png', 'brocanto/stims/to_use/sentence70.png', 'brocanto/stims/to_use/sentence107.png', 'brocanto/stims/to_use/sentence32.png', 'brocanto/stims/to_use/sentence26.png', 'brocanto/stims/to_use/sentence35.png', 'brocanto/stims/to_use/sentence79.png', 'brocanto/stims/to_use/sentence71.png', 'brocanto/stims/to_use/sentence75.png', 'brocanto/stims/to_use/sentence72.png', 'brocanto/stims/to_use/sentence36.png', 'brocanto/stims/to_use/sentence53.png', 'brocanto/stims/to_use/sentence69.png', 'brocanto/stims/to_use/sentence104.png', 'brocanto/stims/to_use/sentence89.png', 'brocanto/stims/to_use/sentence102.png', 'brocanto/stims/to_use/sentence44.png', 'brocanto/stims/to_use/sentence34.png']",,,,,0,0,0,0,,,,,,,,,,,,,,,,,,,,,,,,,,,,,0,0,0,0,1,0,1,0,0,5,5,5,,,,,,,,,,,,,,,,,,,,,,,,,,,,,,,,,,,,,,,,,,,,,,,,,,1107.7441011999908,1108.1707922999922,1108.1707922999922,1109.2208339999925,1109.2208339999925,1109.2208339999925,1109.2208339999925,1109.2208339999925,1109.2208339999925,1109.2208339999925,1109.2208339999925,1109.2208339999925,1109.2208339999925,1109.2959033999941,3,1,3.6978323999937857,1113.011775699997,1113.011775699997,,,,,,,1,2,2023-02-20_17h57.39.072,Memory and Syntax,2022.2.5,71.82839908010429,
,,lu blom zayma li,2,0,0,2,2,0,0,2,brocanto/stims/to_use/sentence105.png,"['brocanto/stims/to_use/sentence31.png', 'brocanto/stims/to_use/sentence65.png', 'brocanto/stims/to_use/sentence63.png', 'brocanto/stims/to_use/sentence68.png', 'brocanto/stims/to_use/sentence39.png', 'brocanto/stims/to_use/sentence14.png', 'brocanto/stims/to_use/sentence103.png', 'brocanto/stims/to_use/sentence17.png', 'brocanto/stims/to_use/sentence12.png', 'brocanto/stims/to_use/sentence29.png', 'brocanto/stims/to_use/sentence70.png', 'brocanto/stims/to_use/sentence107.png', 'brocanto/stims/to_use/sentence32.png', 'brocanto/stims/to_use/sentence26.png', 'brocanto/stims/to_use/sentence35.png', 'brocanto/stims/to_use/sentence79.png', 'brocanto/stims/to_use/sentence71.png', 'brocanto/stims/to_use/sentence75.png', 'brocanto/stims/to_use/sentence72.png', 'brocanto/stims/to_use/sentence36.png', 'brocanto/stims/to_use/sentence53.png', 'brocanto/stims/to_use/sentence69.png', 'brocanto/stims/to_use/sentence104.png', 'brocanto/stims/to_use/sentence89.png', 'brocanto/stims/to_use/sentence102.png', 'brocanto/stims/to_use/sentence44.png', 'brocanto/stims/to_use/sentence34.png']",,,,,0,0,0,0,,,,,,,,,,,,,,,,,,,,,,,,,,,,,0,0,0,0,1,0,1,0,0,6,6,6,,,,,,,,,,,,,,,,,,,,,,,,,,,,,,,,,,,,,,,,,,,,,,,,,,1114.0226870999904,1114.4497446000023,1114.4497446000023,1115.5016593000037,1115.5016593000037,1115.5016593000037,1115.5016593000037,1115.5016593000037,1115.5016593000037,1115.5016593000037,1115.5016593000037,1115.5016593000037,1115.5016593000037,1115.5752121999976,4,1,4.8464984000020195,1120.4438012000028,1120.4438012000028,,,,,,,1,2,2023-02-20_17h57.39.072,Memory and Syntax,2022.2.5,71.82839908010429,
,,lu pleck zayma li,2,0,0,2,2,0,0,2,brocanto/stims/to_use/sentence103.png,"['brocanto/stims/to_use/sentence31.png', 'brocanto/stims/to_use/sentence65.png', 'brocanto/stims/to_use/sentence63.png', 'brocanto/stims/to_use/sentence68.png', 'brocanto/stims/to_use/sentence39.png', 'brocanto/stims/to_use/sentence14.png', 'brocanto/stims/to_use/sentence105.png', 'brocanto/stims/to_use/sentence17.png', 'brocanto/stims/to_use/sentence12.png', 'brocanto/stims/to_use/sentence29.png', 'brocanto/stims/to_use/sentence70.png', 'brocanto/stims/to_use/sentence107.png', 'brocanto/stims/to_use/sentence32.png', 'brocanto/stims/to_use/sentence26.png', 'brocanto/stims/to_use/sentence35.png', 'brocanto/stims/to_use/sentence79.png', 'brocanto/stims/to_use/sentence71.png', 'brocanto/stims/to_use/sentence75.png', 'brocanto/stims/to_use/sentence72.png', 'brocanto/stims/to_use/sentence36.png', 'brocanto/stims/to_use/sentence53.png', 'brocanto/stims/to_use/sentence69.png', 'brocanto/stims/to_use/sentence104.png', 'brocanto/stims/to_use/sentence89.png', 'brocanto/stims/to_use/sentence102.png', 'brocanto/stims/to_use/sentence44.png', 'brocanto/stims/to_use/sentence34.png']",,,,,0,0,0,0,,,,,,,,,,,,,,,,,,,,,,,,,,,,,0,0,0,0,1,0,1,0,0,7,7,7,,,,,,,,,,,,,,,,,,,,,,,,,,,,,,,,,,,,,,,,,,,,,,,,,,1121.4547518999898,1121.8820240999921,1121.8820240999921,1122.8509051,1122.8509051,1122.8509051,1122.8509051,1122.8509051,1122.8509051,1122.8509051,1122.8509051,1122.8509051,1122.8509051,1122.9245757000026,4,1,12.03111130000616,1134.981077599994,1134.981077599994,,,,,,,1,2,2023-02-20_17h57.39.072,Memory and Syntax,2022.2.5,71.82839908010429,
,,klin lu vode lu neep,2,0,0,2,2,0,0,2,brocanto/stims/to_use/sentence17.png,"['brocanto/stims/to_use/sentence31.png', 'brocanto/stims/to_use/sentence65.png', 'brocanto/stims/to_use/sentence63.png', 'brocanto/stims/to_use/sentence68.png', 'brocanto/stims/to_use/sentence39.png', 'brocanto/stims/to_use/sentence14.png', 'brocanto/stims/to_use/sentence105.png', 'brocanto/stims/to_use/sentence103.png', 'brocanto/stims/to_use/sentence12.png', 'brocanto/stims/to_use/sentence29.png', 'brocanto/stims/to_use/sentence70.png', 'brocanto/stims/to_use/sentence107.png', 'brocanto/stims/to_use/sentence32.png', 'brocanto/stims/to_use/sentence26.png', 'brocanto/stims/to_use/sentence35.png', 'brocanto/stims/to_use/sentence79.png', 'brocanto/stims/to_use/sentence71.png', 'brocanto/stims/to_use/sentence75.png', 'brocanto/stims/to_use/sentence72.png', 'brocanto/stims/to_use/sentence36.png', 'brocanto/stims/to_use/sentence53.png', 'brocanto/stims/to_use/sentence69.png', 'brocanto/stims/to_use/sentence104.png', 'brocanto/stims/to_use/sentence89.png', 'brocanto/stims/to_use/sentence102.png', 'brocanto/stims/to_use/sentence44.png', 'brocanto/stims/to_use/sentence34.png']",,,,,0,0,0,0,,,,,,,,,,,,,,,,,,,,,,,,,,,,,0,0,0,0,1,0,1,0,0,8,8,8,,,,,,,,,,,,,,,,,,,,,,,,,,,,,,,,,,,,,,,,,,,,,,,,,,1135.991612999991,1136.418989400001,1136.418989400001,1137.4764355999941,1137.4764355999941,1137.4764355999941,1137.4764355999941,1137.4764355999941,1137.4764355999941,1137.4764355999941,1137.4764355999941,1137.4764355999941,1137.4764355999941,1137.55799999999,3,1,8.515668599997298,1146.100540200001,1146.100540200001,,,,,,,1,2,2023-02-20_17h57.39.072,Memory and Syntax,2022.2.5,71.82839908010429,
,,klin lu blom lu neep,2,0,0,2,2,0,0,2,brocanto/stims/to_use/sentence12.png,"['brocanto/stims/to_use/sentence31.png', 'brocanto/stims/to_use/sentence65.png', 'brocanto/stims/to_use/sentence63.png', 'brocanto/stims/to_use/sentence68.png', 'brocanto/stims/to_use/sentence39.png', 'brocanto/stims/to_use/sentence14.png', 'brocanto/stims/to_use/sentence105.png', 'brocanto/stims/to_use/sentence103.png', 'brocanto/stims/to_use/sentence17.png', 'brocanto/stims/to_use/sentence29.png', 'brocanto/stims/to_use/sentence70.png', 'brocanto/stims/to_use/sentence107.png', 'brocanto/stims/to_use/sentence32.png', 'brocanto/stims/to_use/sentence26.png', 'brocanto/stims/to_use/sentence35.png', 'brocanto/stims/to_use/sentence79.png', 'brocanto/stims/to_use/sentence71.png', 'brocanto/stims/to_use/sentence75.png', 'brocanto/stims/to_use/sentence72.png', 'brocanto/stims/to_use/sentence36.png', 'brocanto/stims/to_use/sentence53.png', 'brocanto/stims/to_use/sentence69.png', 'brocanto/stims/to_use/sentence104.png', 'brocanto/stims/to_use/sentence89.png', 'brocanto/stims/to_use/sentence102.png', 'brocanto/stims/to_use/sentence44.png', 'brocanto/stims/to_use/sentence34.png']",,,,,0,0,0,0,,,,,,,,,,,,,,,,,,,,,,,,,,,,,0,0,0,0,1,0,1,0,0,9,9,9,,,,,,,,,,,,,,,,,,,,,,,,,,,,,,,,,,,,,,,,,,,,,,,,,,1147.1118657999905,1147.5386310999893,1147.5386310999893,1148.539329799998,1148.539329799998,1148.539329799998,1148.539329799998,1148.539329799998,1148.539329799998,1148.539329799998,1148.539329799998,1148.539329799998,1148.539329799998,1148.6220060999913,2,1,1.8977131999999983,1150.5428060999984,1150.5428060999984,,,,,,,1,2,2023-02-20_17h57.39.072,Memory and Syntax,2022.2.5,71.82839908010429,
,,klin lu neimo lu vode,2,0,0,2,2,0,0,2,brocanto/stims/to_use/sentence29.png,"['brocanto/stims/to_use/sentence31.png', 'brocanto/stims/to_use/sentence65.png', 'brocanto/stims/to_use/sentence63.png', 'brocanto/stims/to_use/sentence68.png', 'brocanto/stims/to_use/sentence39.png', 'brocanto/stims/to_use/sentence14.png', 'brocanto/stims/to_use/sentence105.png', 'brocanto/stims/to_use/sentence103.png', 'brocanto/stims/to_use/sentence17.png', 'brocanto/stims/to_use/sentence12.png', 'brocanto/stims/to_use/sentence70.png', 'brocanto/stims/to_use/sentence107.png', 'brocanto/stims/to_use/sentence32.png', 'brocanto/stims/to_use/sentence26.png', 'brocanto/stims/to_use/sentence35.png', 'brocanto/stims/to_use/sentence79.png', 'brocanto/stims/to_use/sentence71.png', 'brocanto/stims/to_use/sentence75.png', 'brocanto/stims/to_use/sentence72.png', 'brocanto/stims/to_use/sentence36.png', 'brocanto/stims/to_use/sentence53.png', 'brocanto/stims/to_use/sentence69.png', 'brocanto/stims/to_use/sentence104.png', 'brocanto/stims/to_use/sentence89.png', 'brocanto/stims/to_use/sentence102.png', 'brocanto/stims/to_use/sentence44.png', 'brocanto/stims/to_use/sentence34.png']",,,,,0,0,0,0,,,,,,,,,,,,,,,,,,,,,,,,,,,,,0,0,0,0,1,0,1,0,0,10,10,10,,,,,,,,,,,,,,,,,,,,,,,,,,,,,,,,,,,,,,,,,,,,,,,,,,1151.5542186999955,1151.9809240999894,1151.9809240999894,1153.0185772999976,1153.0185772999976,1153.0185772999976,1153.0185772999976,1153.0185772999976,1153.0185772999976,1153.0185772999976,1153.0185772999976,1153.0185772999976,1153.0185772999976,1153.0927852000023,4,1,2.3649736999941524,1155.4835618999932,1155.4835618999932,,,,,,,1,2,2023-02-20_17h57.39.072,Memory and Syntax,2022.2.5,71.82839908010429,
,,lu vode praz li,2,0,0,2,2,0,0,2,brocanto/stims/to_use/sentence70.png,"['brocanto/stims/to_use/sentence31.png', 'brocanto/stims/to_use/sentence65.png', 'brocanto/stims/to_use/sentence63.png', 'brocanto/stims/to_use/sentence68.png', 'brocanto/stims/to_use/sentence39.png', 'brocanto/stims/to_use/sentence14.png', 'brocanto/stims/to_use/sentence105.png', 'brocanto/stims/to_use/sentence103.png', 'brocanto/stims/to_use/sentence17.png', 'brocanto/stims/to_use/sentence12.png', 'brocanto/stims/to_use/sentence29.png', 'brocanto/stims/to_use/sentence107.png', 'brocanto/stims/to_use/sentence32.png', 'brocanto/stims/to_use/sentence26.png', 'brocanto/stims/to_use/sentence35.png', 'brocanto/stims/to_use/sentence79.png', 'brocanto/stims/to_use/sentence71.png', 'brocanto/stims/to_use/sentence75.png', 'brocanto/stims/to_use/sentence72.png', 'brocanto/stims/to_use/sentence36.png', 'brocanto/stims/to_use/sentence53.png', 'brocanto/stims/to_use/sentence69.png', 'brocanto/stims/to_use/sentence104.png', 'brocanto/stims/to_use/sentence89.png', 'brocanto/stims/to_use/sentence102.png', 'brocanto/stims/to_use/sentence44.png', 'brocanto/stims/to_use/sentence34.png']",,,,,0,0,0,0,,,,,,,,,,,,,,,,,,,,,,,,,,,,,0,0,0,0,1,0,1,0,0,11,11,11,,,,,,,,,,,,,,,,,,,,,,,,,,,,,,,,,,,,,,,,,,,,,,,,,,1156.4943073999893,1156.9212783999974,1156.9212783999974,1157.9009726999939,1157.9009726999939,1157.9009726999939,1157.9009726999939,1157.9009726999939,1157.9009726999939,1157.9009726999939,1157.9009726999939,1157.9009726999939,1157.9009726999939,1157.9750227999903,3,1,4.450724000009359,1162.4457626999938,1162.4457626999938,,,,,,,1,2,2023-02-20_17h57.39.072,Memory and Syntax,2022.2.5,71.82839908010429,
,,lu troise zayma li,2,0,0,2,2,0,0,2,brocanto/stims/to_use/sentence107.png,"['brocanto/stims/to_use/sentence31.png', 'brocanto/stims/to_use/sentence65.png', 'brocanto/stims/to_use/sentence63.png', 'brocanto/stims/to_use/sentence68.png', 'brocanto/stims/to_use/sentence39.png', 'brocanto/stims/to_use/sentence14.png', 'brocanto/stims/to_use/sentence105.png', 'brocanto/stims/to_use/sentence103.png', 'brocanto/stims/to_use/sentence17.png', 'brocanto/stims/to_use/sentence12.png', 'brocanto/stims/to_use/sentence29.png', 'brocanto/stims/to_use/sentence70.png', 'brocanto/stims/to_use/sentence32.png', 'brocanto/stims/to_use/sentence26.png', 'brocanto/stims/to_use/sentence35.png', 'brocanto/stims/to_use/sentence79.png', 'brocanto/stims/to_use/sentence71.png', 'brocanto/stims/to_use/sentence75.png', 'brocanto/stims/to_use/sentence72.png', 'brocanto/stims/to_use/sentence36.png', 'brocanto/stims/to_use/sentence53.png', 'brocanto/stims/to_use/sentence69.png', 'brocanto/stims/to_use/sentence104.png', 'brocanto/stims/to_use/sentence89.png', 'brocanto/stims/to_use/sentence102.png', 'brocanto/stims/to_use/sentence44.png', 'brocanto/stims/to_use/sentence34.png']",,,,,0,0,0,0,,,,,,,,,,,,,,,,,,,,,,,,,,,,,0,0,0,0,1,0,1,0,0,12,12,12,,,,,,,,,,,,,,,,,,,,,,,,,,,,,,,,,,,,,,,,,,,,,,,,,,1163.4566598999954,1163.8839178999915,1163.8839178999915,1164.8416769000032,1164.8416769000032,1164.8416769000032,1164.8416769000032,1164.8416769000032,1164.8416769000032,1164.8416769000032,1164.8416769000032,1164.8416769000032,1164.8416769000032,1164.9232955999905,4,1,6.010359799998696,1170.9603539999953,1170.9603539999953,,,,,,,1,2,2023-02-20_17h57.39.072,Memory and Syntax,2022.2.5,71.82839908010429,
,,lu neep nim li,2,0,0,2,2,0,0,2,brocanto/stims/to_use/sentence32.png,"['brocanto/stims/to_use/sentence31.png', 'brocanto/stims/to_use/sentence65.png', 'brocanto/stims/to_use/sentence63.png', 'brocanto/stims/to_use/sentence68.png', 'brocanto/stims/to_use/sentence39.png', 'brocanto/stims/to_use/sentence14.png', 'brocanto/stims/to_use/sentence105.png', 'brocanto/stims/to_use/sentence103.png', 'brocanto/stims/to_use/sentence17.png', 'brocanto/stims/to_use/sentence12.png', 'brocanto/stims/to_use/sentence29.png', 'brocanto/stims/to_use/sentence70.png', 'brocanto/stims/to_use/sentence107.png', 'brocanto/stims/to_use/sentence26.png', 'brocanto/stims/to_use/sentence35.png', 'brocanto/stims/to_use/sentence79.png', 'brocanto/stims/to_use/sentence71.png', 'brocanto/stims/to_use/sentence75.png', 'brocanto/stims/to_use/sentence72.png', 'brocanto/stims/to_use/sentence36.png', 'brocanto/stims/to_use/sentence53.png', 'brocanto/stims/to_use/sentence69.png', 'brocanto/stims/to_use/sentence104.png', 'brocanto/stims/to_use/sentence89.png', 'brocanto/stims/to_use/sentence102.png', 'brocanto/stims/to_use/sentence44.png', 'brocanto/stims/to_use/sentence34.png']",,,,,0,0,0,0,,,,,,,,,,,,,,,,,,,,,,,,,,,,,0,0,0,0,1,0,1,0,0,13,13,13,,,,,,,,,,,,,,,,,,,,,,,,,,,,,,,,,,,,,,,,,,,,,,,,,,1171.9709059000015,1172.3984520999948,1172.3984520999948,1173.411820399997,1173.411820399997,1173.411820399997,1173.411820399997,1173.411820399997,1173.411820399997,1173.411820399997,1173.411820399997,1173.411820399997,1173.411820399997,1173.4943417999893,3,1,17.159275800004252,1190.6795221999928,1190.6795221999928,,,,,,,1,2,2023-02-20_17h57.39.072,Memory and Syntax,2022.2.5,71.82839908010429,
,,klin lu neimo lu pleck,2,0,0,2,2,0,0,2,brocanto/stims/to_use/sentence26.png,"['brocanto/stims/to_use/sentence31.png', 'brocanto/stims/to_use/sentence65.png', 'brocanto/stims/to_use/sentence63.png', 'brocanto/stims/to_use/sentence68.png', 'brocanto/stims/to_use/sentence39.png', 'brocanto/stims/to_use/sentence14.png', 'brocanto/stims/to_use/sentence105.png', 'brocanto/stims/to_use/sentence103.png', 'brocanto/stims/to_use/sentence17.png', 'brocanto/stims/to_use/sentence12.png', 'brocanto/stims/to_use/sentence29.png', 'brocanto/stims/to_use/sentence70.png', 'brocanto/stims/to_use/sentence107.png', 'brocanto/stims/to_use/sentence32.png', 'brocanto/stims/to_use/sentence35.png', 'brocanto/stims/to_use/sentence79.png', 'brocanto/stims/to_use/sentence71.png', 'brocanto/stims/to_use/sentence75.png', 'brocanto/stims/to_use/sentence72.png', 'brocanto/stims/to_use/sentence36.png', 'brocanto/stims/to_use/sentence53.png', 'brocanto/stims/to_use/sentence69.png', 'brocanto/stims/to_use/sentence104.png', 'brocanto/stims/to_use/sentence89.png', 'brocanto/stims/to_use/sentence102.png', 'brocanto/stims/to_use/sentence44.png', 'brocanto/stims/to_use/sentence34.png']",,,,,0,0,0,0,,,,,,,,,,,,,,,,,,,,,,,,,,,,,0,0,0,0,1,0,1,0,0,14,14,14,,,,,,,,,,,,,,,,,,,,,,,,,,,,,,,,,,,,,,,,,,,,,,,,,,1191.6904057999927,1192.1173821999982,1192.1173821999982,1193.128737299994,1193.128737299994,1193.128737299994,1193.128737299994,1193.128737299994,1193.128737299994,1193.128737299994,1193.128737299994,1193.128737299994,1193.128737299994,1193.201807599995,2,1,2.400006299998495,1195.6199742000026,1195.6199742000026,,,,,,,1,2,2023-02-20_17h57.39.072,Memory and Syntax,2022.2.5,71.82839908010429,
,,lu troise nim li,2,0,0,2,2,0,0,2,brocanto/stims/to_use/sentence35.png,"['brocanto/stims/to_use/sentence31.png', 'brocanto/stims/to_use/sentence65.png', 'brocanto/stims/to_use/sentence63.png', 'brocanto/stims/to_use/sentence68.png', 'brocanto/stims/to_use/sentence39.png', 'brocanto/stims/to_use/sentence14.png', 'brocanto/stims/to_use/sentence105.png', 'brocanto/stims/to_use/sentence103.png', 'brocanto/stims/to_use/sentence17.png', 'brocanto/stims/to_use/sentence12.png', 'brocanto/stims/to_use/sentence29.png', 'brocanto/stims/to_use/sentence70.png', 'brocanto/stims/to_use/sentence107.png', 'brocanto/stims/to_use/sentence32.png', 'brocanto/stims/to_use/sentence26.png', 'brocanto/stims/to_use/sentence79.png', 'brocanto/stims/to_use/sentence71.png', 'brocanto/stims/to_use/sentence75.png', 'brocanto/stims/to_use/sentence72.png', 'brocanto/stims/to_use/sentence36.png', 'brocanto/stims/to_use/sentence53.png', 'brocanto/stims/to_use/sentence69.png', 'brocanto/stims/to_use/sentence104.png', 'brocanto/stims/to_use/sentence89.png', 'brocanto/stims/to_use/sentence102.png', 'brocanto/stims/to_use/sentence44.png', 'brocanto/stims/to_use/sentence34.png']",,,,,0,0,0,0,,,,,,,,,,,,,,,,,,,,,,,,,,,,,0,0,0,0,1,0,1,0,0,15,15,15,,,,,,,,,,,,,,,,,,,,,,,,,,,,,,,,,,,,,,,,,,,,,,,,,,1196.6308537000004,1197.0580884999945,1197.0580884999945,1198.0450326999999,1198.0450326999999,1198.0450326999999,1198.0450326999999,1198.0450326999999,1198.0450326999999,1198.0450326999999,1198.0450326999999,1198.0450326999999,1198.0450326999999,1198.1258917999949,1,1,2.863744799993583,1201.016348499994,1201.016348499994,,,,,,,1,2,2023-02-20_17h57.39.072,Memory and Syntax,2022.2.5,71.82839908010429,
