cvmt,asrt,crtt,rspan,onsetTime,thisImage,Session1.thisRepN,Session1.thisTrialN,Session1.thisN,Session1.thisIndex,cvmtBlock.thisRepN,cvmtBlock.thisTrialN,cvmtBlock.thisN,cvmtBlock.thisIndex,asrtBlock.thisRepN,asrtBlock.thisTrialN,asrtBlock.thisN,asrtBlock.thisIndex,crttBlock.thisRepN,crttBlock.thisTrialN,crttBlock.thisN,crttBlock.thisIndex,crttPracticeLoop.thisRepN,crttPracticeLoop.thisTrialN,crttPracticeLoop.thisN,crttPracticeLoop.thisIndex,crttExptLoop.thisRepN,crttExptLoop.thisTrialN,crttExptLoop.thisN,crttExptLoop.thisIndex,load_text.started,load_text.stopped,startMouse.started,startMouse.stopped,keyResp.keys,keyResp.corr,keyResp.rt,mouseResp.x,mouseResp.y,mouseResp.leftButton,mouseResp.midButton,mouseResp.rightButton,mouseResp.time,mouseResp.clicked_name,crttTrialRespTimes,crtt_stim.started,crtt_stim.stopped,text_fb.started,text_fb.stopped,moveOnKeys.keys,moveOnKeys.started,moveOnKeys.stopped,moveOnMouse.started,moveOnMouse.stopped,moveOnKeys.rt,key_resp_2.keys,key_resp_2.rt,key_resp_2.started,key_resp_2.stopped,mouse.x,mouse.y,mouse.leftButton,mouse.midButton,mouse.rightButton,mouse.started,mouse.stopped,participant,session,date,expName,psychopyVersion,frameRate,
0,0,1,0,1.3,images/target_cross.jpg,0,0,0,0,,,,,,,,,0,0,0,0,0,0,0,3,,,,,21.939893007278442,None,0.007588386535644531,None,v,1,0.6817178726196289,[],[],[],[],[],[],[],-0.6182821273803711,34.16287016868591,34.40180516242981,34.88792419433594,None,None,34.88792419433594,None,0.0046520233154296875,None,,,,,,,,,,,,,1,1,2022-09-09_11h51.16.938,memory and syntax,2022.1.1,60.27329385340309,
0,0,1,0,1.3,images/target_plus.jpg,0,0,0,0,,,,,,,,,0,0,0,0,0,1,1,1,,,,,,,,,b,1,0.8584339618682861,[],[],[],[],[],[],[],-0.4415660381317139,36.017009019851685,36.26648211479187,36.88881516456604,None,space,36.88881516456604,None,0.0012443065643310547,None,9.642223119735718,,,,,,,,,,,,1,1,2022-09-09_11h51.16.938,memory and syntax,2022.1.1,60.27329385340309,
0,0,1,0,1.1,images/target_square.jpg,0,0,0,0,,,,,,,,,0,0,0,0,0,2,2,5,,,,,,,,,b,1,0.9496629238128662,[],[],[],[],[],[],[],-0.15033707618713388,46.55039310455322,46.80040216445923,47.519922971725464,None,space,47.519922971725464,None,0.003621816635131836,None,2.5987000465393066,,,,,,,,,,,,1,1,2022-09-09_11h51.16.938,memory and syntax,2022.1.1,60.27329385340309,
0,0,1,0,1.1,images/target_cross.jpg,0,0,0,0,,,,,,,,,0,0,0,0,0,3,3,0,,,,,,,,,v,1,0.5829870700836182,[],[],[],[],[],[],[],-0.5170129299163819,50.141446113586426,50.38382411003113,50.73806715011597,None,space,50.73806715011597,None,0.0038568973541259766,None,5.5603320598602295,,,,,,,,,,,,1,1,2022-09-09_11h51.16.938,memory and syntax,2022.1.1,60.27329385340309,
0,0,1,0,1.5,images/target_square.jpg,0,0,0,0,,,,,,,,,0,0,0,0,0,4,4,2,,,,,,,,,b,1,0.4411149024963379,[],[],[],[],[],[],[],-1.058885097503662,56.31748914718628,56.56830716133118,56.77119207382202,None,space,56.77119207382202,None,0.002248048782348633,None,2.0753040313720703,,,,,,,,,,,,1,1,2022-09-09_11h51.16.938,memory and syntax,2022.1.1,60.27329385340309,
0,0,1,0,1.3,images/target_square.jpg,0,0,0,0,,,,,,,,,0,0,0,0,0,5,5,8,,,,,,,,,v,1,0.5242669582366943,[],[],[],[],[],[],[],-0.7757330417633057,58.86741304397583,59.116552114486694,59.407207012176514,None,space,59.407207012176514,None,0.00051116943359375,None,1.5434041023254395,,,,,,,,,,,,1,1,2022-09-09_11h51.16.938,memory and syntax,2022.1.1,60.27329385340309,
0,0,1,0,1.5,images/target_plus.jpg,0,0,0,0,,,,,,,,,0,0,0,0,0,6,6,4,,,,,,,,,v,1,0.6073558330535889,[],[],[],[],[],[],[],-0.8926441669464111,60.98229908943176,61.23242998123169,61.60438013076782,None,space,61.60438013076782,None,0.0014584064483642578,None,0.8383991718292236,,,,,,,,,,,,1,1,2022-09-09_11h51.16.938,memory and syntax,2022.1.1,60.27329385340309,
0,0,1,0,1.5,images/target_cross.jpg,0,0,0,0,,,,,,,,,0,0,0,0,0,7,7,6,,,,,,,,,v,1,0.5268349647521973,[],[],[],[],[],[],[],-0.9731650352478027,62.46679496765137,62.716193199157715,63.005990982055664,None,space,63.005990982055664,None,0.001628875732421875,None,0.7403438091278076,,,,,,,,,,,,1,1,2022-09-09_11h51.16.938,memory and syntax,2022.1.1,60.27329385340309,
0,0,1,0,1.1,images/target_plus.jpg,0,0,0,0,,,,,,,,,0,0,0,0,0,8,8,7,,,,,,,,,v,1,0.45278406143188477,[],[],[],[],[],[],[],-0.6472159385681153,63.76699113845825,64.01655006408691,64.2357861995697,None,space,64.2357861995697,None,0.004482269287109375,None,0.7050549983978271,,,,,,,,,,,,1,1,2022-09-09_11h51.16.938,memory and syntax,2022.1.1,60.27329385340309,
0,0,1,0,1.1,images/target_cross.jpg,0,0,0,0,,,,,,,,,0,0,0,0,,,,,0,0,0,0,,,,,b,0,0.7017099857330322,[],[],[],[],[],[],[],-0.39829001426696786,68.32188415527344,68.56709098815918,,,,,,,,,space,3.3326399326324463,64.96593904495239,None,-0.88932294,-0.4986979,0,0,0,0.014795303344726562,None,1,1,2022-09-09_11h51.16.938,memory and syntax,2022.1.1,60.27329385340309,
0,0,1,0,1.3,images/target_square.jpg,0,0,0,0,,,,,,,,,0,0,0,0,,,,,0,1,1,8,,,,,v,1,0.162459135055542,[],[],[],[],[],[],[],-1.137540864944458,69.03220796585083,None,,,,,,,,,,,,,,,,,,,,1,1,2022-09-09_11h51.16.938,memory and syntax,2022.1.1,60.27329385340309,
0,0,1,0,1.1,images/target_plus.jpg,0,0,0,0,,,,,,,,,0,0,0,0,,,,,0,2,2,7,,,,,v,1,0.5749809741973877,[],[],[],[],[],[],[],-0.5250190258026124,69.21569418907166,69.46662902832031,,,,,,,,,,,,,,,,,,,,1,1,2022-09-09_11h51.16.938,memory and syntax,2022.1.1,60.27329385340309,
0,0,1,0,1.3,images/target_cross.jpg,0,0,0,0,,,,,,,,,0,0,0,0,,,,,0,3,3,3,,,,,b,1,0.5609509944915771,[],[],[],[],[],[],[],-0.7390490055084229,69.79886603355408,70.04852604866028,,,,,,,,,,,,,,,,,,,,1,1,2022-09-09_11h51.16.938,memory and syntax,2022.1.1,60.27329385340309,
0,0,1,0,1.1,images/target_square.jpg,0,0,0,0,,,,,,,,,0,0,0,0,,,,,0,4,4,5,,,,,v,1,0.5228230953216553,[],[],[],[],[],[],[],-0.5771769046783448,70.36538004875183,70.61562013626099,,,,,,,,,,,,,,,,,,,,1,1,2022-09-09_11h51.16.938,memory and syntax,2022.1.1,60.27329385340309,
0,0,1,0,1.5,images/target_plus.jpg,0,0,0,0,,,,,,,,,0,0,0,0,,,,,0,5,5,4,,,,,v,1,0.44126296043395996,[],[],[],[],[],[],[],-1.05873703956604,70.89862012863159,71.14967107772827,,,,,,,,,,,,,,,,,,,,1,1,2022-09-09_11h51.16.938,memory and syntax,2022.1.1,60.27329385340309,
0,0,1,0,1.5,images/target_cross.jpg,0,0,0,0,,,,,,,,,0,0,0,0,,,,,0,6,6,6,,,,,b,1,0.4090428352355957,[],[],[],[],[],[],[],-1.0909571647644043,71.34829616546631,71.59827518463135,,,,,,,,,,,,,,,,,,,,1,1,2022-09-09_11h51.16.938,memory and syntax,2022.1.1,60.27329385340309,
0,0,1,0,1.3,images/target_plus.jpg,0,0,0,0,,,,,,,,,0,0,0,0,,,,,0,7,7,1,,,,,v,1,0.39818406105041504,[],[],[],[],[],[],[],-0.901815938949585,71.76557302474976,72.0153260231018,,,,,,,,,,,,,,,,,,,,1,1,2022-09-09_11h51.16.938,memory and syntax,2022.1.1,60.27329385340309,
0,0,1,0,1.5,images/target_square.jpg,0,0,0,0,,,,,,,,,0,0,0,0,,,,,0,8,8,2,,,,,b,1,0.3727860450744629,[],[],[],[],[],[],[],-1.127213954925537,72.18237519264221,72.43206119537354,,,,,,,,,,,,,,,,,,,,1,1,2022-09-09_11h51.16.938,memory and syntax,2022.1.1,60.27329385340309,
0,0,1,0,1.5,images/target_square.jpg,0,0,0,0,,,,,,,,,0,0,0,0,,,,,1,0,9,2,,,,,v,1,0.3420100212097168,[],[],[],[],[],[],[],-1.1579899787902832,72.56518507003784,72.81555509567261,,,,,,,,,,,,,,,,,,,,1,1,2022-09-09_11h51.16.938,memory and syntax,2022.1.1,60.27329385340309,
0,0,1,0,1.1,images/target_square.jpg,0,0,0,0,,,,,,,,,0,0,0,0,,,,,1,1,10,5,,,,,v,1,0.399914026260376,[],[],[],[],[],[],[],-0.7000859737396241,72.91506218910217,73.16528415679932,,,,,,,,,,,,,,,,,,,,1,1,2022-09-09_11h51.16.938,memory and syntax,2022.1.1,60.27329385340309,
0,0,1,0,1.5,images/target_cross.jpg,0,0,0,0,,,,,,,,,0,0,0,0,,,,,1,2,11,6,,,,,v,0,0.2733120918273926,[],[],[],[],[],[],[],-1.2266879081726074,73.33158302307129,73.5819640159607,,,,,,,,,,,,,,,,,,,,1,1,2022-09-09_11h51.16.938,memory and syntax,2022.1.1,60.27329385340309,
0,0,1,0,1.3,images/target_plus.jpg,0,0,0,0,,,,,,,,,0,0,0,0,,,,,1,3,12,1,,,,,b,0,0.19577288627624512,[],[],[],[],[],[],[],-1.104227113723755,73.61500096321106,None,,,,,,,,,,,,,,,,,,,,1,1,2022-09-09_11h51.16.938,memory and syntax,2022.1.1,60.27329385340309,
