word,img,Session1.thisRepN,Session1.thisTrialN,Session1.thisN,Session1.thisIndex,Session2.thisRepN,Session2.thisTrialN,Session2.thisN,Session2.thisIndex,S2_engAJT_block.thisRepN,S2_engAJT_block.thisTrialN,S2_engAJT_block.thisN,S2_engAJT_block.thisIndex,S2_vocabPhase.thisRepN,S2_vocabPhase.thisTrialN,S2_vocabPhase.thisN,S2_vocabPhase.thisIndex,S2_vocabRep.thisRepN,S2_vocabRep.thisTrialN,S2_vocabRep.thisN,S2_vocabRep.thisIndex,S2_vocabLearnTrials.thisRepN,S2_vocabLearnTrials.thisTrialN,S2_vocabLearnTrials.thisN,S2_vocabLearnTrials.thisIndex,S2_vocabTestTrials.thisRepN,S2_vocabTestTrials.thisTrialN,S2_vocabTestTrials.thisN,S2_vocabTestTrials.thisIndex,too_fast_punish.thisRepN,too_fast_punish.thisTrialN,too_fast_punish.thisN,too_fast_punish.thisIndex,brocanto_story.started,start_brocanto.started,vocab_learn_begin.started,vocab_text.started,key_resp.started,vocab_image.started,S2_vrepeat.started,S2_vrepeat_key_resp.started,S2_vrepeat_key_resp.keys,S2_vrepeat_key_resp.rt,vtest_instr_text.started,vtest_begin.started,answerbox.started,S2_vocabTest_resp,S2_vocabTest_rts,S2_vtest_key_resp.started,S2_vtest_text.started,S2_vtest_img.started,S2_vtest_key_resp.keys,S2_vtest_key_resp.rt,S2_vtest_fb.started,participant,session,date,expName,psychopyVersion,frameRate,
lu neimo,brocanto/stims/to_use/pilot3.jpg,,,,,0,0,0,0,,,,,0,0,0,0,0,0,0,0,0,0,0,5,,,,,,,,,11.400144300001557,11.400144300001557,12.698123499998474,13.403602599995793,13.403602599995793,13.403602599995793,,,,,,,,,,,,,,,,1,2,2023-02-20_17h47.43.343,Memory and Syntax,2022.2.5,68.83193581886108,
lu troise,brocanto/stims/to_use/janitor2.jpg,,,,,0,0,0,0,,,,,0,0,0,0,0,0,0,0,0,1,1,4,,,,,,,,,,,,13.9404782000056,13.9404782000056,13.9404782000056,,,,,,,,,,,,,,,,1,2,2023-02-20_17h47.43.343,Memory and Syntax,2022.2.5,68.83193581886108,
lu blom,brocanto/stims/to_use/firefighter3.jpg,,,,,0,0,0,0,,,,,0,0,0,0,0,0,0,0,0,2,2,2,,,,,,,,,,,,14.12282590000541,14.12282590000541,14.12282590000541,,,,,,,,,,,,,,,,1,2,2023-02-20_17h47.43.343,Memory and Syntax,2022.2.5,68.83193581886108,
lu neep,brocanto/stims/to_use/doctor2.png,,,,,0,0,0,0,,,,,0,0,0,0,0,0,0,0,0,3,3,1,,,,,,,,,,,,14.2946809999994,14.2946809999994,14.2946809999994,,,,,,,,,,,,,,,,1,2,2023-02-20_17h47.43.343,Memory and Syntax,2022.2.5,68.83193581886108,
lu vode,brocanto/stims/to_use/chef1.jpg,,,,,0,0,0,0,,,,,0,0,0,0,0,0,0,0,0,4,4,3,,,,,,,,,,,,14.46938009999576,14.46938009999576,14.46938009999576,,,,,,,,,,,,,,,,1,2,2023-02-20_17h47.43.343,Memory and Syntax,2022.2.5,68.83193581886108,
lu pleck,brocanto/stims/to_use/mechanic1.jpg,,,,,0,0,0,0,,,,,0,0,0,0,0,0,0,0,0,5,5,0,,,,,,,,,,,,14.908498000004329,14.908498000004329,14.908498000004329,,,,,,,,,,,,,,,,1,2,2023-02-20_17h47.43.343,Memory and Syntax,2022.2.5,68.83193581886108,
lu vode,brocanto/stims/to_use/chef1.jpg,,,,,0,0,0,0,,,,,0,0,0,0,0,0,0,0,1,0,6,3,,,,,,,,,,,,15.064209799995297,15.064209799995297,15.064209799995297,,,,,,,,,,,,,,,,1,2,2023-02-20_17h47.43.343,Memory and Syntax,2022.2.5,68.83193581886108,
lu troise,brocanto/stims/to_use/janitor2.jpg,,,,,0,0,0,0,,,,,0,0,0,0,0,0,0,0,1,1,7,4,,,,,,,,,,,,15.219439899999998,15.219439899999998,15.219439899999998,,,,,,,,,,,,,,,,1,2,2023-02-20_17h47.43.343,Memory and Syntax,2022.2.5,68.83193581886108,
lu neimo,brocanto/stims/to_use/pilot3.jpg,,,,,0,0,0,0,,,,,0,0,0,0,0,0,0,0,1,2,8,5,,,,,,,,,,,,15.390042500002892,15.390042500002892,15.390042500002892,,,,,,,,,,,,,,,,1,2,2023-02-20_17h47.43.343,Memory and Syntax,2022.2.5,68.83193581886108,
lu blom,brocanto/stims/to_use/firefighter3.jpg,,,,,0,0,0,0,,,,,0,0,0,0,0,0,0,0,1,3,9,2,,,,,,,,,,,,15.548924699993222,15.548924699993222,15.548924699993222,,,,,,,,,,,,,,,,1,2,2023-02-20_17h47.43.343,Memory and Syntax,2022.2.5,68.83193581886108,
lu pleck,brocanto/stims/to_use/mechanic1.jpg,,,,,0,0,0,0,,,,,0,0,0,0,0,0,0,0,1,4,10,0,,,,,,,,,,,,15.704666499994346,15.704666499994346,15.704666499994346,,,,,,,,,,,,,,,,1,2,2023-02-20_17h47.43.343,Memory and Syntax,2022.2.5,68.83193581886108,
lu neep,brocanto/stims/to_use/doctor2.png,,,,,0,0,0,0,,,,,0,0,0,0,0,0,0,0,1,5,11,1,,,,,,,,,,,,15.859977100000833,15.859977100000833,15.859977100000833,,,,,,,,,,,,,,,,1,2,2023-02-20_17h47.43.343,Memory and Syntax,2022.2.5,68.83193581886108,
lu pleck,brocanto/stims/to_use/mechanic1.jpg,,,,,0,0,0,0,,,,,0,0,0,0,,,,,,,,,0,0,0,0,,,,,,,,,,,16.01505339999858,16.01505339999858,t,1.0622634000028484,17.097089300004882,17.097089300004882,17.837123899997096,lu pleck,"[7.596174500009511, 0.31224959999963176, 7.95181450000382, 0.510254900000291, 8.018212000009953, 0.6501691000012215, 8.270238099998096, 0.7737961000093492, 9.336356200001319]",17.837123899997096,17.837123899997096,17.837123899997096,"['l', 'u', 'space', 'p', 'l', 'e', 'c', 'k', 'return']","[7.596174500009511, 7.908424100009142, 8.264064100003452, 8.462069400004111, 8.528466900010244, 8.668381100011175, 8.920407199999318, 9.044034200007445, 10.110152300010668]",27.975035800001933,1,2,2023-02-20_17h47.43.343,Memory and Syntax,2022.2.5,68.83193581886108,
lu neep,brocanto/stims/to_use/doctor2.png,,,,,0,0,0,0,,,,,0,0,0,0,,,,,,,,,0,1,1,1,,,,,,,,,,,,,,,,,28.990448199998355,lu neep,"[7.186850700003561, 0.22990649999701418, 7.363138800006709, 0.3856288999959361, 7.727103100012755, 0.5556866999977501, 7.833094700006768, 0.9057364999898709]",28.990448199998355,28.990448199998355,28.990448199998355,"['l', 'u', 'space', 'n', 'e', 'e', 'p', 'return']","[7.186850700003561, 7.416757200000575, 7.593045300003723, 7.748767700002645, 8.112732000008691, 8.282789800010505, 8.388781400004518, 8.738831199996639]",37.756320000000414,1,2,2023-02-20_17h47.43.343,Memory and Syntax,2022.2.5,68.83193581886108,
lu blom,brocanto/stims/to_use/firefighter3.jpg,,,,,0,0,0,0,,,,,0,0,0,0,,,,,,,,,0,2,2,2,,,,,,,,,,,,,,,,,38.77174500000547,lu blom,"[2.471481500004302, 0.2060605000006035, 2.6355223999999, 0.5323257999989437, 2.9036195000080625, 0.7159041999984765, 3.0217734000034397, 0.9979496000014478]",38.77174500000547,38.77174500000547,38.77174500000547,"['l', 'u', 'space', 'b', 'l', 'o', 'm', 'return']","[2.471481500004302, 2.6775420000049053, 2.8415829000005033, 3.1678481999988435, 3.435945300007006, 3.619523700006539, 3.7376776000019163, 4.019723000004888]",42.81072150000546,1,2,2023-02-20_17h47.43.343,Memory and Syntax,2022.2.5,68.83193581886108,
lu vode,brocanto/stims/to_use/chef1.jpg,,,,,0,0,0,0,,,,,0,0,0,0,,,,,,,,,0,3,3,3,,,,,,,,,,,,,,,,,43.828787999998895,lu vode,"[1.7404892000049585, 0.19607590000669006, 1.876300000003539, 6.594109300000127, 1.908252100009122, 6.7102603999956045, 2.0481700000091223, 7.114549699996132]",43.828787999998895,43.828787999998895,43.828787999998895,"['l', 'u', 'space', 'v', 'o', 'd', 'e', 'return']","[1.7404892000049585, 1.9365651000116486, 2.072375900010229, 8.470409300003666, 8.50236140000925, 8.618512500004726, 8.758430400004727, 9.162719700005255]",53.019369300003746,1,2,2023-02-20_17h47.43.343,Memory and Syntax,2022.2.5,68.83193581886108,
lu troise,brocanto/stims/to_use/janitor2.jpg,,,,,0,0,0,0,,,,,0,0,0,0,,,,,,,,,0,4,4,4,,,,,,,,,,,,,,,,,54.035928299999796,lu neimo,"[1.7253497000056086, 0.12389190000249073, 2.1156320000009146, 0.2316346000006888, 2.293675400011125, 1.2817070999881253, 2.4195526000112295, 1.3400422999984585, 2.561229300001287, 1.5140883999993093, 2.861367000004975]",54.035928299999796,54.035928299999796,54.035928299999796,"['l', 'y', 'backspace', 'u', 'space', 'n', 'e', 'i', 'm', 'o', 'return']","[1.7253497000056086, 1.8492416000080993, 2.2395239000034053, 2.3472666000016034, 2.525310000011814, 3.5753824999992503, 3.701259699999355, 3.759594900009688, 3.9012715999997454, 4.075317700000596, 4.3754554000042845]",58.42981479999435,1,2,2023-02-20_17h47.43.343,Memory and Syntax,2022.2.5,68.83193581886108,
lu neimo,brocanto/stims/to_use/pilot3.jpg,,,,,0,0,0,0,,,,,0,0,0,0,,,,,,,,,0,5,5,5,,,,,,,,,,,,,,,,,59.44367759999295,lu neimo,"[1.5695788999873912, 0.2958876000047894, 1.7135952999815345, 0.4379439000185812, 1.8478913999715587, 0.4995978000224568, 1.9600517999642761, 0.6874290000268957, 2.2201253999664914]",59.44367759999295,59.44367759999295,59.44367759999295,"['l', 'u', 'space', 'n', 'e', 'i', 'm', 'o', 'return']","[1.5695788999873912, 1.8654664999921806, 2.009482899986324, 2.1515392000001157, 2.28583529999014, 2.3474891999940155, 2.459649599986733, 2.647480799991172, 2.907554399993387]",62.3736554000061,1,2,2023-02-20_17h47.43.343,Memory and Syntax,2022.2.5,68.83193581886108,
lu pleck,brocanto/stims/to_use/mechanic1.jpg,,,,,0,0,0,0,,,,,0,0,0,0,,,,,,,,,1,0,6,0,,,,,,,,,,,,,,,,,63.389714399992954,lu pleck,"[1.2775078000122448, 0.5240186999872094, 1.5220738000207348, 0.9694176999910269, 1.6562982000177726, 1.12115839998296, 1.7943064000282902, 1.2592820999707328, 2.0301531000295654, 1.4798742999701062, 2.1716516000306, 3.269862799978, 2.247672700032126, 3.3600361999706365, 2.4555574000405613, 3.4201135999610415, 2.873467400044319]",63.389714399992954,63.389714399992954,63.389714399992954,"['comma', 'l', 'u', 'backspace', 'backspace', 'backspace', 'backspace', 'backspace', 'l', 'u', 'space', 'p', 'l', 'e', 'c', 'k', 'return']","[1.2775078000122448, 1.8015264999994542, 2.046092500007944, 2.4914915000117617, 2.6257159000087995, 2.7774566000007326, 2.91546480001125, 3.053588499999023, 3.289435200000298, 3.5100273999996716, 3.6515259000007063, 5.4415144000086, 5.517535500010126, 5.607708900002763, 5.815593600011198, 5.875671000001603, 6.293581000005361]",69.70612370000163,1,2,2023-02-20_17h47.43.343,Memory and Syntax,2022.2.5,68.83193581886108,
,,,,,,,,,,,,,,,,,,,,,,,,,,,,,,,,,,,,,,,,,,,,,,70.72045209999487,Type response now,[],70.72045209999487,70.72045209999487,70.72045209999487,,,,,,,,,,
