sentence,img,s2_sentPrax_C,s2_sentPrax_P,s4_sentPrax_C,s4_sentPrax_P,s5_sentPrax_C,s5_sentPrax_P,s6_sentPrax_C,s6_sentPrax_P,target,foils,Session1.thisRepN,Session1.thisTrialN,Session1.thisN,Session1.thisIndex,Session2.thisRepN,Session2.thisTrialN,Session2.thisN,Session2.thisIndex,S2_engAJT_block.thisRepN,S2_engAJT_block.thisTrialN,S2_engAJT_block.thisN,S2_engAJT_block.thisIndex,S2_vocabPhase.thisRepN,S2_vocabPhase.thisTrialN,S2_vocabPhase.thisN,S2_vocabPhase.thisIndex,S2_sentLearnTrials.thisRepN,S2_sentLearnTrials.thisTrialN,S2_sentLearnTrials.thisN,S2_sentLearnTrials.thisIndex,S2_sentPraxPhase.thisRepN,S2_sentPraxPhase.thisTrialN,S2_sentPraxPhase.thisN,S2_sentPraxPhase.thisIndex,S2_sentPraxC_block.thisRepN,S2_sentPraxC_block.thisTrialN,S2_sentPraxC_block.thisN,S2_sentPraxC_block.thisIndex,S2_sentPraxP_block.thisRepN,S2_sentPraxP_block.thisTrialN,S2_sentPraxP_block.thisN,S2_sentPraxP_block.thisIndex,S2_sentPraxP_trials.thisRepN,S2_sentPraxP_trials.thisTrialN,S2_sentPraxP_trials.thisN,S2_sentPraxP_trials.thisIndex,too_fast_punish3.thisRepN,too_fast_punish3.thisTrialN,too_fast_punish3.thisN,too_fast_punish3.thisIndex,brocanto_story.started,start_brocanto.started,sent_learn_instr_text.started,sent_learn_begin.started,sent_learn_img.started,sent_text.started,sent_prax_instr_text.started,sent_prax_begin.started,sentPrax_P_instr_text.started,sentPrax_P_begin.started,blankITI_2.started,sent_Prax_P_img.started,blankITI_2.stopped,sent_Prax_P_img.stopped,S2_sentPraxP_resp,S2_sentPraxP_rts,S2_sentPrax_P_key_resp.started,sent_Prax_P_img_3.started,sent_Prax_P_text.started,S2_sentPrax_P_key_resp.keys,S2_sentPrax_P_key_resp.rt,sentPrax_P_fb.started,sentPrax_score_update_2.started,tooFast_score.started,participant,session,date,expName,psychopyVersion,frameRate,
lu pleck nim li,brocanto/stims/to_use/sentence31.png,,,,,,,,,,,,,,,0,0,0,0,,,,,,,,,0,0,0,0,,,,,,,,,,,,,,,,,,,,,9.031177199998638,9.031177199998638,17.69605989998672,17.69605989998672,18.34447059998638,18.34447059998638,,,,,,,,,,,,,,,,,,,1,2,2023-02-22_14h27.01.318,Memory and Syntax,2022.2.5,164.98301498931562,
yab lu neimo lu vode,brocanto/stims/to_use/sentence65.png,,,,,,,,,,,,,,,0,0,0,0,,,,,,,,,0,1,1,1,,,,,,,,,,,,,,,,,,,,,,,,,24.94495810000808,24.94495810000808,,,,,,,,,,,,,,,,,,,1,2,2023-02-22_14h27.01.318,Memory and Syntax,2022.2.5,164.98301498931562,
yab lu neimo lu neep,brocanto/stims/to_use/sentence63.png,,,,,,,,,,,,,,,0,0,0,0,,,,,,,,,0,2,2,2,,,,,,,,,,,,,,,,,,,,,,,,,31.545232100004796,31.545232100004796,,,,,,,,,,,,,,,,,,,1,2,2023-02-22_14h27.01.318,Memory and Syntax,2022.2.5,164.98301498931562,
lu neep praz li,brocanto/stims/to_use/sentence68.png,,,,,,,,,,,,,,,0,0,0,0,,,,,,,,,0,3,3,3,,,,,,,,,,,,,,,,,,,,,,,,,38.14252839999972,38.14252839999972,,,,,,,,,,,,,,,,,,,1,2,2023-02-22_14h27.01.318,Memory and Syntax,2022.2.5,164.98301498931562,
yab lu pleck lu vode,brocanto/stims/to_use/sentence39.png,,,,,,,,,,,,,,,0,0,0,0,,,,,,,,,0,4,4,4,,,,,,,,,,,,,,,,,,,,,,,,,44.743056699982844,44.743056699982844,,,,,,,,,,,,,,,,,,,1,2,2023-02-22_14h27.01.318,Memory and Syntax,2022.2.5,164.98301498931562,
klin lu blom lu troise,brocanto/stims/to_use/sentence14.png,,,,,,,,,,,,,,,0,0,0,0,,,,,,,,,0,5,5,5,,,,,,,,,,,,,,,,,,,,,,,,,51.35542430001078,51.35542430001078,,,,,,,,,,,,,,,,,,,1,2,2023-02-22_14h27.01.318,Memory and Syntax,2022.2.5,164.98301498931562,
lu blom zayma li,brocanto/stims/to_use/sentence105.png,,,,,,,,,,,,,,,0,0,0,0,,,,,,,,,0,6,6,6,,,,,,,,,,,,,,,,,,,,,,,,,57.938876800006256,57.938876800006256,,,,,,,,,,,,,,,,,,,1,2,2023-02-22_14h27.01.318,Memory and Syntax,2022.2.5,164.98301498931562,
lu pleck zayma li,brocanto/stims/to_use/sentence103.png,,,,,,,,,,,,,,,0,0,0,0,,,,,,,,,0,7,7,7,,,,,,,,,,,,,,,,,,,,,,,,,64.53795769999851,64.53795769999851,,,,,,,,,,,,,,,,,,,1,2,2023-02-22_14h27.01.318,Memory and Syntax,2022.2.5,164.98301498931562,
klin lu vode lu neep,brocanto/stims/to_use/sentence17.png,,,,,,,,,,,,,,,0,0,0,0,,,,,,,,,0,8,8,8,,,,,,,,,,,,,,,,,,,,,,,,,71.17644650000148,71.17644650000148,,,,,,,,,,,,,,,,,,,1,2,2023-02-22_14h27.01.318,Memory and Syntax,2022.2.5,164.98301498931562,
klin lu blom lu neep,brocanto/stims/to_use/sentence12.png,,,,,,,,,,,,,,,0,0,0,0,,,,,,,,,0,9,9,9,,,,,,,,,,,,,,,,,,,,,,,,,77.77300809998997,77.77300809998997,,,,,,,,,,,,,,,,,,,1,2,2023-02-22_14h27.01.318,Memory and Syntax,2022.2.5,164.98301498931562,
klin lu neimo lu vode,brocanto/stims/to_use/sentence29.png,,,,,,,,,,,,,,,0,0,0,0,,,,,,,,,0,10,10,10,,,,,,,,,,,,,,,,,,,,,,,,,84.36121319999802,84.36121319999802,,,,,,,,,,,,,,,,,,,1,2,2023-02-22_14h27.01.318,Memory and Syntax,2022.2.5,164.98301498931562,
lu vode praz li,brocanto/stims/to_use/sentence70.png,,,,,,,,,,,,,,,0,0,0,0,,,,,,,,,0,11,11,11,,,,,,,,,,,,,,,,,,,,,,,,,90.94748989999061,90.94748989999061,,,,,,,,,,,,,,,,,,,1,2,2023-02-22_14h27.01.318,Memory and Syntax,2022.2.5,164.98301498931562,
lu troise zayma li,brocanto/stims/to_use/sentence107.png,,,,,,,,,,,,,,,0,0,0,0,,,,,,,,,0,12,12,12,,,,,,,,,,,,,,,,,,,,,,,,,97.54100339999422,97.54100339999422,,,,,,,,,,,,,,,,,,,1,2,2023-02-22_14h27.01.318,Memory and Syntax,2022.2.5,164.98301498931562,
lu neep nim li,brocanto/stims/to_use/sentence32.png,,,,,,,,,,,,,,,0,0,0,0,,,,,,,,,0,13,13,13,,,,,,,,,,,,,,,,,,,,,,,,,104.14265059999889,104.14265059999889,,,,,,,,,,,,,,,,,,,1,2,2023-02-22_14h27.01.318,Memory and Syntax,2022.2.5,164.98301498931562,
klin lu neimo lu pleck,brocanto/stims/to_use/sentence26.png,,,,,,,,,,,,,,,0,0,0,0,,,,,,,,,0,14,14,14,,,,,,,,,,,,,,,,,,,,,,,,,110.75613920000615,110.75613920000615,,,,,,,,,,,,,,,,,,,1,2,2023-02-22_14h27.01.318,Memory and Syntax,2022.2.5,164.98301498931562,
lu troise nim li,brocanto/stims/to_use/sentence35.png,,,,,,,,,,,,,,,0,0,0,0,,,,,,,,,0,15,15,15,,,,,,,,,,,,,,,,,,,,,,,,,117.3414652000065,117.3414652000065,,,,,,,,,,,,,,,,,,,1,2,2023-02-22_14h27.01.318,Memory and Syntax,2022.2.5,164.98301498931562,
noyka lu neep lu blom,brocanto/stims/to_use/sentence79.png,,,,,,,,,,,,,,,0,0,0,0,,,,,,,,,0,16,16,16,,,,,,,,,,,,,,,,,,,,,,,,,123.9501700999972,123.9501700999972,,,,,,,,,,,,,,,,,,,1,2,2023-02-22_14h27.01.318,Memory and Syntax,2022.2.5,164.98301498931562,
lu troise praz li,brocanto/stims/to_use/sentence71.png,,,,,,,,,,,,,,,0,0,0,0,,,,,,,,,0,17,17,17,,,,,,,,,,,,,,,,,,,,,,,,,130.54574810000486,130.54574810000486,,,,,,,,,,,,,,,,,,,1,2,2023-02-22_14h27.01.318,Memory and Syntax,2022.2.5,164.98301498931562,
noyka lu pleck lu vode,brocanto/stims/to_use/sentence75.png,,,,,,,,,,,,,,,0,0,0,0,,,,,,,,,0,18,18,18,,,,,,,,,,,,,,,,,,,,,,,,,137.14938059999258,137.14938059999258,,,,,,,,,,,,,,,,,,,1,2,2023-02-22_14h27.01.318,Memory and Syntax,2022.2.5,164.98301498931562,
lu neimo praz li,brocanto/stims/to_use/sentence72.png,,,,,,,,,,,,,,,0,0,0,0,,,,,,,,,0,19,19,19,,,,,,,,,,,,,,,,,,,,,,,,,143.73908969998593,143.73908969998593,,,,,,,,,,,,,,,,,,,1,2,2023-02-22_14h27.01.318,Memory and Syntax,2022.2.5,164.98301498931562,
lu neimo nim li,brocanto/stims/to_use/sentence36.png,,,,,,,,,,,,,,,0,0,0,0,,,,,,,,,0,20,20,20,,,,,,,,,,,,,,,,,,,,,,,,,150.33855069999117,150.33855069999117,,,,,,,,,,,,,,,,,,,1,2,2023-02-22_14h27.01.318,Memory and Syntax,2022.2.5,164.98301498931562,
yab lu vode lu neep,brocanto/stims/to_use/sentence53.png,,,,,,,,,,,,,,,0,0,0,0,,,,,,,,,0,21,21,21,,,,,,,,,,,,,,,,,,,,,,,,,156.94618480000645,156.94618480000645,,,,,,,,,,,,,,,,,,,1,2,2023-02-22_14h27.01.318,Memory and Syntax,2022.2.5,164.98301498931562,
lu blom praz li,brocanto/stims/to_use/sentence69.png,,,,,,,,,,,,,,,0,0,0,0,,,,,,,,,0,22,22,22,,,,,,,,,,,,,,,,,,,,,,,,,163.54011339999852,163.54011339999852,,,,,,,,,,,,,,,,,,,1,2,2023-02-22_14h27.01.318,Memory and Syntax,2022.2.5,164.98301498931562,
lu neep zayma li,brocanto/stims/to_use/sentence104.png,,,,,,,,,,,,,,,0,0,0,0,,,,,,,,,0,23,23,23,,,,,,,,,,,,,,,,,,,,,,,,,170.1408528999891,170.1408528999891,,,,,,,,,,,,,,,,,,,1,2,2023-02-22_14h27.01.318,Memory and Syntax,2022.2.5,164.98301498931562,
noyka lu vode lu neep,brocanto/stims/to_use/sentence89.png,,,,,,,,,,,,,,,0,0,0,0,,,,,,,,,0,24,24,24,,,,,,,,,,,,,,,,,,,,,,,,,176.75046989999828,176.75046989999828,,,,,,,,,,,,,,,,,,,1,2,2023-02-22_14h27.01.318,Memory and Syntax,2022.2.5,164.98301498931562,
noyka lu neimo lu troise,brocanto/stims/to_use/sentence102.png,,,,,,,,,,,,,,,0,0,0,0,,,,,,,,,0,25,25,25,,,,,,,,,,,,,,,,,,,,,,,,,183.34976139999344,183.34976139999344,,,,,,,,,,,,,,,,,,,1,2,2023-02-22_14h27.01.318,Memory and Syntax,2022.2.5,164.98301498931562,
yab lu neep lu vode,brocanto/stims/to_use/sentence44.png,,,,,,,,,,,,,,,0,0,0,0,,,,,,,,,0,26,26,26,,,,,,,,,,,,,,,,,,,,,,,,,189.94960130000254,189.94960130000254,,,,,,,,,,,,,,,,,,,1,2,2023-02-22_14h27.01.318,Memory and Syntax,2022.2.5,164.98301498931562,
lu vode nim li,brocanto/stims/to_use/sentence34.png,,,,,,,,,,,,,,,0,0,0,0,,,,,,,,,0,27,27,27,,,,,,,,,,,,,,,,,,,,,,,,,196.53823089998332,196.53823089998332,,,,,,,,,,,,,,,,,,,1,2,2023-02-22_14h27.01.318,Memory and Syntax,2022.2.5,164.98301498931562,
lu pleck nim li,,0,2,2,0,0,2,2,0,brocanto/stims/to_use/sentence31.png,"['brocanto/stims/to_use/sentence65.png', 'brocanto/stims/to_use/sentence63.png', 'brocanto/stims/to_use/sentence68.png', 'brocanto/stims/to_use/sentence39.png', 'brocanto/stims/to_use/sentence14.png', 'brocanto/stims/to_use/sentence105.png', 'brocanto/stims/to_use/sentence103.png', 'brocanto/stims/to_use/sentence17.png', 'brocanto/stims/to_use/sentence12.png', 'brocanto/stims/to_use/sentence29.png', 'brocanto/stims/to_use/sentence70.png', 'brocanto/stims/to_use/sentence107.png', 'brocanto/stims/to_use/sentence32.png', 'brocanto/stims/to_use/sentence26.png', 'brocanto/stims/to_use/sentence35.png', 'brocanto/stims/to_use/sentence79.png', 'brocanto/stims/to_use/sentence71.png', 'brocanto/stims/to_use/sentence75.png', 'brocanto/stims/to_use/sentence72.png', 'brocanto/stims/to_use/sentence36.png', 'brocanto/stims/to_use/sentence53.png', 'brocanto/stims/to_use/sentence69.png', 'brocanto/stims/to_use/sentence104.png', 'brocanto/stims/to_use/sentence89.png', 'brocanto/stims/to_use/sentence102.png', 'brocanto/stims/to_use/sentence44.png', 'brocanto/stims/to_use/sentence34.png']",,,,,0,0,0,0,,,,,,,,,,,,,0,1,1,1,,,,,0,0,0,0,0,0,0,0,,,,,,,,,,,203.1280371999892,203.1280371999892,204.41482219999307,204.41482219999307,205.00528959999792,205.49771970001166,205.49771970001166,205.6058870999841,lu pleck nim li,"[0.9902850000071339, 0.3080345999915153, 1.1881735000060871, 4.8819630999933, 1.420211200020276, 5.052022499992745, 1.6524099000089336, 5.149858699995093, 1.872305500030052, 5.3099216999835335, 2.0622685000416823, 5.497978399973363, 2.3962090000277385, 5.697916699980851, 2.876251600042451, 5.828189699968789, 3.1479883000429254, 6.128152199962642, 3.443927300046198, 6.554269999964163]",205.6058870999841,205.6058870999841,205.6058870999841,"['l', 'u', 'space', 'p', 'l', 'e', 'c', 'k', 'space', 'n', 'i', 'm', 'space', 'l', 'i', 'backspace', 'backspace', 'space', 'l', 'i', 'return']","[0.9902850000071339, 1.2983195999986492, 1.4962080999976024, 6.070136599999387, 6.302174300013576, 6.472233700013021, 6.704432400001679, 6.802268600004027, 7.022164200025145, 7.182227200013585, 7.372190200025216, 7.560246900015045, 7.746177799999714, 7.894187400001101, 8.09412570000859, 8.574168300023302, 8.70444130001124, 8.976178000011714, 9.276140500005567, 9.57207950000884, 9.99819730001036]",215.623291099997,215.623291099997,215.623291099997,1,2,2023-02-22_14h27.01.318,Memory and Syntax,2022.2.5,164.98301498931562,
yab lu neimo lu vode,,0,2,2,0,0,2,2,0,brocanto/stims/to_use/sentence65.png,"['brocanto/stims/to_use/sentence31.png', 'brocanto/stims/to_use/sentence63.png', 'brocanto/stims/to_use/sentence68.png', 'brocanto/stims/to_use/sentence39.png', 'brocanto/stims/to_use/sentence14.png', 'brocanto/stims/to_use/sentence105.png', 'brocanto/stims/to_use/sentence103.png', 'brocanto/stims/to_use/sentence17.png', 'brocanto/stims/to_use/sentence12.png', 'brocanto/stims/to_use/sentence29.png', 'brocanto/stims/to_use/sentence70.png', 'brocanto/stims/to_use/sentence107.png', 'brocanto/stims/to_use/sentence32.png', 'brocanto/stims/to_use/sentence26.png', 'brocanto/stims/to_use/sentence35.png', 'brocanto/stims/to_use/sentence79.png', 'brocanto/stims/to_use/sentence71.png', 'brocanto/stims/to_use/sentence75.png', 'brocanto/stims/to_use/sentence72.png', 'brocanto/stims/to_use/sentence36.png', 'brocanto/stims/to_use/sentence53.png', 'brocanto/stims/to_use/sentence69.png', 'brocanto/stims/to_use/sentence104.png', 'brocanto/stims/to_use/sentence89.png', 'brocanto/stims/to_use/sentence102.png', 'brocanto/stims/to_use/sentence44.png', 'brocanto/stims/to_use/sentence34.png']",,,,,0,0,0,0,,,,,,,,,,,,,0,1,1,1,,,,,0,0,0,0,0,1,1,1,,,,,,,,,,,,,,,216.62586790000205,217.1216807999881,217.1216807999881,217.22989290000987,yab lu neimo lu vode,"[0.4721315999922808, 0.28402960000676103, 0.9201306999893859, 0.41004440002143383, 1.786114699963946, 0.5361972000391688, 1.8798804999678396, 0.7643994000391103, 2.3536994999449234, 1.0264172000461258, 2.5957002999493852, 2.834559600043576, 2.7476239999523386, 2.926888400048483, 2.8912610999541357, 3.268861000047764, 3.2474379999621306, 3.8147540000500157, 3.457461499958299, 4.1846831000293605, 3.767551299970364, 4.510602100024698, 5.209530199965229, 4.922614000039175, 5.383442499965895, 5.110715300019365, 5.637519199983217]",217.22989290000987,217.22989290000987,217.22989290000987,"['l', 'u', 'backspace', 'backspace', 'y', 'a', 'b', 'space', 'l', 'u', 'space', 'n', 'e', 'i', 'm', 'space', 'backspace', 'o', 'space', 'l', 'u', 'space', 'v', 'o', 'd', 'e', 'return']","[0.4721315999922808, 0.7561611999990419, 1.204160299996147, 1.3301751000108197, 2.1961590999853797, 2.3223119000031147, 2.4160777000070084, 2.64427990000695, 3.118098899984034, 3.3801166999910492, 3.622117499995511, 5.430259899992961, 5.582183599995915, 5.674512400000822, 5.818149500002619, 6.1601221000018995, 6.516299000009894, 7.062192000012146, 7.272215500008315, 7.64214459998766, 7.952234399999725, 8.278153399995063, 9.720132299989928, 10.132144200004404, 10.30605650000507, 10.49415779998526, 10.748234500002582]",227.99232079999638,227.99232079999638,227.99232079999638,1,2,2023-02-22_14h27.01.318,Memory and Syntax,2022.2.5,164.98301498931562,
yab lu neimo lu neep,,0,2,2,0,0,2,2,0,brocanto/stims/to_use/sentence63.png,"['brocanto/stims/to_use/sentence31.png', 'brocanto/stims/to_use/sentence65.png', 'brocanto/stims/to_use/sentence68.png', 'brocanto/stims/to_use/sentence39.png', 'brocanto/stims/to_use/sentence14.png', 'brocanto/stims/to_use/sentence105.png', 'brocanto/stims/to_use/sentence103.png', 'brocanto/stims/to_use/sentence17.png', 'brocanto/stims/to_use/sentence12.png', 'brocanto/stims/to_use/sentence29.png', 'brocanto/stims/to_use/sentence70.png', 'brocanto/stims/to_use/sentence107.png', 'brocanto/stims/to_use/sentence32.png', 'brocanto/stims/to_use/sentence26.png', 'brocanto/stims/to_use/sentence35.png', 'brocanto/stims/to_use/sentence79.png', 'brocanto/stims/to_use/sentence71.png', 'brocanto/stims/to_use/sentence75.png', 'brocanto/stims/to_use/sentence72.png', 'brocanto/stims/to_use/sentence36.png', 'brocanto/stims/to_use/sentence53.png', 'brocanto/stims/to_use/sentence69.png', 'brocanto/stims/to_use/sentence104.png', 'brocanto/stims/to_use/sentence89.png', 'brocanto/stims/to_use/sentence102.png', 'brocanto/stims/to_use/sentence44.png', 'brocanto/stims/to_use/sentence34.png']",,,,,0,0,0,0,,,,,,,,,,,,,0,1,1,1,,,,,0,0,0,0,0,2,2,2,,,,,,,,,,,,,,,229.00426570000127,229.49726830000873,229.49726830000873,229.60820849999436,yab lu neimo lu neep,"[1.4238062999793328, 0.1999890000151936, 1.6299298999656457, 0.8078818000212777, 2.262014599982649, 1.0701554999977816, 2.4696797000069637, 1.9142412999935914, 2.59755760000553, 2.0122381999972276, 2.7455444999795873, 2.2401099000126123, 2.8897047999780625, 2.66033770001377, 3.0057037999795284, 3.2282176000007894, 3.195728999999119, 3.3760941999789793, 3.44577130000107, 4.02805319998879, 4.041782100015553, 4.157964499987429, 4.193859599996358, 4.27204250000068, 4.599840199982282]",229.60820849999436,229.60820849999436,229.60820849999436,"['y', 'a', 'b', 'space', 'l', 'u', 'space', 'n', 'e', 'i', 'm', 'o', 'p', 'space', 'backspace', 'backspace', 'o', 'space', 'l', 'u', 'space', 'n', 'e', 'e', 'p', 'return']","[1.4238062999793328, 1.6237952999945264, 1.8299188999808393, 2.4378116999869235, 3.069896400003927, 3.3321700999804307, 3.5398352000047453, 4.383921000000555, 4.511798899999121, 4.6097958000027575, 4.757782699976815, 4.983826499985298, 4.9856543999922, 5.129814699990675, 5.550042499991832, 5.666041499993298, 6.233921399980318, 6.423946599999908, 6.571823199978098, 6.821865499980049, 7.47382449998986, 8.069835300004343, 8.199746600002982, 8.351824099983787, 8.465902099997038, 8.871882699982962]",238.4953802000091,238.4953802000091,238.4953802000091,1,2,2023-02-22_14h27.01.318,Memory and Syntax,2022.2.5,164.98301498931562,
lu neep praz li,,0,2,2,0,0,2,2,0,brocanto/stims/to_use/sentence68.png,"['brocanto/stims/to_use/sentence31.png', 'brocanto/stims/to_use/sentence65.png', 'brocanto/stims/to_use/sentence63.png', 'brocanto/stims/to_use/sentence39.png', 'brocanto/stims/to_use/sentence14.png', 'brocanto/stims/to_use/sentence105.png', 'brocanto/stims/to_use/sentence103.png', 'brocanto/stims/to_use/sentence17.png', 'brocanto/stims/to_use/sentence12.png', 'brocanto/stims/to_use/sentence29.png', 'brocanto/stims/to_use/sentence70.png', 'brocanto/stims/to_use/sentence107.png', 'brocanto/stims/to_use/sentence32.png', 'brocanto/stims/to_use/sentence26.png', 'brocanto/stims/to_use/sentence35.png', 'brocanto/stims/to_use/sentence79.png', 'brocanto/stims/to_use/sentence71.png', 'brocanto/stims/to_use/sentence75.png', 'brocanto/stims/to_use/sentence72.png', 'brocanto/stims/to_use/sentence36.png', 'brocanto/stims/to_use/sentence53.png', 'brocanto/stims/to_use/sentence69.png', 'brocanto/stims/to_use/sentence104.png', 'brocanto/stims/to_use/sentence89.png', 'brocanto/stims/to_use/sentence102.png', 'brocanto/stims/to_use/sentence44.png', 'brocanto/stims/to_use/sentence34.png']",,,,,0,0,0,0,,,,,,,,,,,,,0,1,1,1,,,,,0,0,0,0,0,3,3,3,,,,,,,,,,,,,,,239.50452889999724,239.9999550000066,239.9999550000066,240.10695660000783,lu neep praz li,"[0.9492430000100285, 0.26190219999989495, 1.1311438000120688, 0.9338959000015166, 1.2790965999884065, 1.3340033999993466, 1.4150826999975834, 1.481978199997684, 1.8030913000111468, 1.6879432999994606, 1.955133300012676, 1.8499669999873731, 2.401093500026036, 2.549983099976089, 2.499154900026042, 2.83591339996201, 2.6251606000296306, 3.065901899972232, 2.827181400032714, 3.1978863999829628, 2.969467800023267, 3.363603299978422, 3.1493982000101823, 3.5378538999939337, 4.801207400014391, 4.1778985999990255, 5.135138999990886, 4.567927299998701, 5.621137000009185, 5.085970999993151, 5.923314800020307, 5.6258449999731965]",240.10695660000783,240.10695660000783,240.10695660000783,"['l', 'u', 'space', 'p', 'l', 'backspace', 'backspace', 'backspace', 'space', 'n', 'e', 'e', 'p', 'space', 'p', 'l', 'backspace', 'r', 'a', 'backspace', 'backspace', 'backspace', 'space', 'p', 'r', 'a', 'a', 'a', 'z', 'space', 'l', 'i', 'backspace', 'l', 'i', 'return']","[0.9492430000100285, 1.2111452000099234, 1.3930460000119638, 2.0650397000135854, 2.212992499989923, 2.613099999987753, 2.74908609999693, 2.8970608999952674, 3.285069500008831, 3.4910346000106074, 3.6430766000121366, 3.805100300000049, 4.251060500013409, 4.49938039999688, 4.951076600002125, 5.049138000002131, 5.335068299988052, 5.4610739999916404, 5.691062500001863, 5.893083300004946, 6.025067800015677, 6.16735420000623, 6.333071100001689, 6.513001499988604, 6.687252100004116, 6.911196100001689, 7.917341199994553, 8.339061300008325, 8.979106000013417, 9.313037599989912, 9.493169699999271, 9.703066299989587, 10.189064300007885, 10.707108000002336, 11.009285800013458, 11.549159799993504]",251.67152559998794,251.67152559998794,251.67152559998794,1,2,2023-02-22_14h27.01.318,Memory and Syntax,2022.2.5,164.98301498931562,
yab lu pleck lu vode,,0,2,2,0,0,2,2,0,brocanto/stims/to_use/sentence39.png,"['brocanto/stims/to_use/sentence31.png', 'brocanto/stims/to_use/sentence65.png', 'brocanto/stims/to_use/sentence63.png', 'brocanto/stims/to_use/sentence68.png', 'brocanto/stims/to_use/sentence14.png', 'brocanto/stims/to_use/sentence105.png', 'brocanto/stims/to_use/sentence103.png', 'brocanto/stims/to_use/sentence17.png', 'brocanto/stims/to_use/sentence12.png', 'brocanto/stims/to_use/sentence29.png', 'brocanto/stims/to_use/sentence70.png', 'brocanto/stims/to_use/sentence107.png', 'brocanto/stims/to_use/sentence32.png', 'brocanto/stims/to_use/sentence26.png', 'brocanto/stims/to_use/sentence35.png', 'brocanto/stims/to_use/sentence79.png', 'brocanto/stims/to_use/sentence71.png', 'brocanto/stims/to_use/sentence75.png', 'brocanto/stims/to_use/sentence72.png', 'brocanto/stims/to_use/sentence36.png', 'brocanto/stims/to_use/sentence53.png', 'brocanto/stims/to_use/sentence69.png', 'brocanto/stims/to_use/sentence104.png', 'brocanto/stims/to_use/sentence89.png', 'brocanto/stims/to_use/sentence102.png', 'brocanto/stims/to_use/sentence44.png', 'brocanto/stims/to_use/sentence34.png']",,,,,0,0,0,0,,,,,,,,,,,,,0,1,1,1,,,,,0,0,0,0,0,4,4,4,,,,,,,,,,,,,,,252.68215969999437,253.1755170999968,253.1755170999968,253.28558799999882,yab lu pleck lu vode,"[1.0524336000089534, 0.25792629999341443, 1.9784909000154585, 0.3979560000007041, 2.4044737000076566, 0.523952499992447, 2.48255230000359, 0.701942500018049, 2.838484299980337, 0.9520102000387851, 2.9964186999714, 1.1259769000462256, 3.076424099970609, 1.2319680000364315, 3.2647263999679126, 1.3236566000268795, 3.385657299979357, 1.8187401000177488, 3.599758299998939, 2.0307723000005353, 4.035773400013568, 2.150632799981395, 4.158126100024674, 2.638394299981883, 4.470080400031293]",253.28558799999882,253.28558799999882,253.28558799999882,"['l', 'u', 'backspace', 'backspace', 'y', 'a', 'b', 'space', 'l', 'u', 'space', 'p', 'l', 'e', 'c', 'k', 'space', 'l', 'u', 'space', 'v', 'b', 'o', 'd', 'e', 'return']","[1.0524336000089534, 1.3103599000023678, 2.236417200008873, 2.3764469000161625, 2.8024297000083607, 2.9284262000001036, 3.006504799996037, 3.184494800021639, 3.540426799998386, 3.790494500019122, 3.9484289000101853, 4.122395600017626, 4.202401000016835, 4.30839210000704, 4.496694400004344, 4.588382999994792, 4.7093139000062365, 5.204397399997106, 5.418498400016688, 5.630530599999474, 6.066545700014103, 6.072367900022073, 6.186406199994963, 6.308758900006069, 6.796520400006557, 7.108474700013176]",260.41063729999587,260.41063729999587,260.41063729999587,1,2,2023-02-22_14h27.01.318,Memory and Syntax,2022.2.5,164.98301498931562,
klin lu blom lu troise,,0,2,2,0,0,2,2,0,brocanto/stims/to_use/sentence14.png,"['brocanto/stims/to_use/sentence31.png', 'brocanto/stims/to_use/sentence65.png', 'brocanto/stims/to_use/sentence63.png', 'brocanto/stims/to_use/sentence68.png', 'brocanto/stims/to_use/sentence39.png', 'brocanto/stims/to_use/sentence105.png', 'brocanto/stims/to_use/sentence103.png', 'brocanto/stims/to_use/sentence17.png', 'brocanto/stims/to_use/sentence12.png', 'brocanto/stims/to_use/sentence29.png', 'brocanto/stims/to_use/sentence70.png', 'brocanto/stims/to_use/sentence107.png', 'brocanto/stims/to_use/sentence32.png', 'brocanto/stims/to_use/sentence26.png', 'brocanto/stims/to_use/sentence35.png', 'brocanto/stims/to_use/sentence79.png', 'brocanto/stims/to_use/sentence71.png', 'brocanto/stims/to_use/sentence75.png', 'brocanto/stims/to_use/sentence72.png', 'brocanto/stims/to_use/sentence36.png', 'brocanto/stims/to_use/sentence53.png', 'brocanto/stims/to_use/sentence69.png', 'brocanto/stims/to_use/sentence104.png', 'brocanto/stims/to_use/sentence89.png', 'brocanto/stims/to_use/sentence102.png', 'brocanto/stims/to_use/sentence44.png', 'brocanto/stims/to_use/sentence34.png']",,,,,0,0,0,0,,,,,,,,,,,,,0,1,1,1,,,,,0,0,0,0,0,5,5,5,,,,,,,,,,,,,,,261.4328372000018,261.9266543999838,261.9266543999838,262.04738350000116,klin lu blom lu troise,"[1.5047763000184204, 0.5198166999907698, 1.7827736000181176, 0.7679545999853872, 2.054669700009981, 0.9319481999846175, 2.3766679000109434, 5.163918499980355, 2.6326604000350926, 5.327899899974, 2.7966753000218887, 5.413788999983808, 2.9668082000280265, 5.533798799966462, 3.120908600045368, 5.707701199949952, 3.3209060000663158, 5.881649299932178, 7.829068100079894, 5.969557199918199, 8.241059400083032, 6.089508399920305, 9.159105400089175, 6.381485499907285, 9.325089100108016, 6.473473699908936, 9.607241100107785, 6.599487499886891, 9.795242200110806, 6.737341599888168, 10.351261400122894, 7.22932039987063, 10.677227900130674, 7.703380199876847, 11.021192800137214, 8.007413399871439, 11.433196600119118]",262.04738350000116,262.04738350000116,262.04738350000116,"['k', 'l', 'backspace', 'k', 'l', 'i', 'n', 'space', 'l', 'u', 'space', 'b', 'l', 'o', 'm', 'space', 'l', 'u', 'space', 'p', 'l', 'backspace', 'backspace', 't', 'r', 'o', 'i', 's', 'backspace', 'backspace', 'backspace', 'r', 'o', 'i', 'backspace', 'o', 'i', 's', 'e', 'return']","[1.2069156999932602, 1.5047763000184204, 2.0245930000091903, 2.3025903000088874, 2.5507282000035048, 2.8226242999953683, 2.9866178999945987, 3.308616099995561, 7.540586399991298, 7.796578900015447, 7.960560300009092, 8.124575199995888, 8.210464300005697, 8.380597200011835, 8.500606999994488, 8.65470740001183, 8.82860979999532, 9.028607200016268, 9.202555299998494, 13.710717400012072, 13.798625299998093, 14.21061660000123, 14.330567800003337, 15.24861380000948, 15.424872700008564, 15.54059089999646, 15.706574600015301, 15.798562800016953, 16.08071480001672, 16.206728599994676, 16.394729699997697, 16.532583799998974, 16.836898200010182, 17.088603000011062, 17.580581799993524, 17.906548300001305, 18.38060810000752, 18.72457300001406, 19.028606200008653, 19.440609999990556]",281.5007359999872,281.5007359999872,281.5007359999872,1,2,2023-02-22_14h27.01.318,Memory and Syntax,2022.2.5,164.98301498931562,
lu blom zayma li,,0,2,2,0,0,2,2,0,brocanto/stims/to_use/sentence105.png,"['brocanto/stims/to_use/sentence31.png', 'brocanto/stims/to_use/sentence65.png', 'brocanto/stims/to_use/sentence63.png', 'brocanto/stims/to_use/sentence68.png', 'brocanto/stims/to_use/sentence39.png', 'brocanto/stims/to_use/sentence14.png', 'brocanto/stims/to_use/sentence103.png', 'brocanto/stims/to_use/sentence17.png', 'brocanto/stims/to_use/sentence12.png', 'brocanto/stims/to_use/sentence29.png', 'brocanto/stims/to_use/sentence70.png', 'brocanto/stims/to_use/sentence107.png', 'brocanto/stims/to_use/sentence32.png', 'brocanto/stims/to_use/sentence26.png', 'brocanto/stims/to_use/sentence35.png', 'brocanto/stims/to_use/sentence79.png', 'brocanto/stims/to_use/sentence71.png', 'brocanto/stims/to_use/sentence75.png', 'brocanto/stims/to_use/sentence72.png', 'brocanto/stims/to_use/sentence36.png', 'brocanto/stims/to_use/sentence53.png', 'brocanto/stims/to_use/sentence69.png', 'brocanto/stims/to_use/sentence104.png', 'brocanto/stims/to_use/sentence89.png', 'brocanto/stims/to_use/sentence102.png', 'brocanto/stims/to_use/sentence44.png', 'brocanto/stims/to_use/sentence34.png']",,,,,0,0,0,0,,,,,,,,,,,,,0,1,1,1,,,,,0,0,0,0,0,6,6,6,,,,,,,,,,,,,,,282.50704709999263,282.99898800000665,282.99898800000665,283.103609999991,lu blom zayma li,"[2.6184738999872934, 0.2540068000089377, 2.802507299988065, 0.4418369999912102, 2.882559499994386, 0.6262724999978673, 3.010135899996385, 0.8162493999989238, 5.1001943000010215, 1.028083399985917, 5.198157600010745, 1.2902133999741636, 5.35814150000806, 1.4042811999679543, 5.650055300007807, 1.6284138999762945, 6.82998830001452]",283.103609999991,283.103609999991,283.103609999991,"['l', 'u', 'space', 'b', 'l', 'o', 'm', 'space', 'z', 'a', 'y', 'm', 'a', 'space', 'l', 'i', 'return', 'return']","[2.6184738999872934, 2.872480699996231, 3.0565140999970026, 3.244344299979275, 3.324396499985596, 3.5088319999922533, 3.6364083999942522, 3.8263852999953087, 5.916443699999945, 6.128277699986938, 6.226240999996662, 6.488370999984909, 6.648354899982223, 6.762422699976014, 7.054336499975761, 7.278469199984102, 7.616468699998222, 8.458402199990815]",291.5733848999953,291.5733848999953,291.5733848999953,1,2,2023-02-22_14h27.01.318,Memory and Syntax,2022.2.5,164.98301498931562,
lu pleck zayma li,,0,2,2,0,0,2,2,0,brocanto/stims/to_use/sentence103.png,"['brocanto/stims/to_use/sentence31.png', 'brocanto/stims/to_use/sentence65.png', 'brocanto/stims/to_use/sentence63.png', 'brocanto/stims/to_use/sentence68.png', 'brocanto/stims/to_use/sentence39.png', 'brocanto/stims/to_use/sentence14.png', 'brocanto/stims/to_use/sentence105.png', 'brocanto/stims/to_use/sentence17.png', 'brocanto/stims/to_use/sentence12.png', 'brocanto/stims/to_use/sentence29.png', 'brocanto/stims/to_use/sentence70.png', 'brocanto/stims/to_use/sentence107.png', 'brocanto/stims/to_use/sentence32.png', 'brocanto/stims/to_use/sentence26.png', 'brocanto/stims/to_use/sentence35.png', 'brocanto/stims/to_use/sentence79.png', 'brocanto/stims/to_use/sentence71.png', 'brocanto/stims/to_use/sentence75.png', 'brocanto/stims/to_use/sentence72.png', 'brocanto/stims/to_use/sentence36.png', 'brocanto/stims/to_use/sentence53.png', 'brocanto/stims/to_use/sentence69.png', 'brocanto/stims/to_use/sentence104.png', 'brocanto/stims/to_use/sentence89.png', 'brocanto/stims/to_use/sentence102.png', 'brocanto/stims/to_use/sentence44.png', 'brocanto/stims/to_use/sentence34.png']",,,,,0,0,0,0,,,,,,,,,,,,,0,1,1,1,,,,,0,0,0,0,0,7,7,7,,,,,,,,,,,,,,,292.57895279998775,293.071451900003,293.071451900003,293.17653450000216,lu pleck zayma li,"[3.497362299996894, 0.2201319999876432, 3.6215387000120245, 0.48401009998633526, 3.711436000012327, 0.5979178999841679, 3.8915841999987606, 0.7158296999987215, 4.057723499980057, 2.4418219000217505, 4.261571199982427, 2.541793600015808, 4.513670899963472, 2.7017679000273347, 4.7638950999535155, 2.8474893000384327, 4.953949499962619, 3.2775749000138603, 5.211831999971764, 3.605727200018009]",293.17653450000216,293.17653450000216,293.17653450000216,"['l', 'u', 'space', 'p', 'l', 'e', 'c', 'k', 'space', 'z', 'a', 'y', 'm', 'a', 'space', 'l', 'o', 'backspace', 'i', 'return']","[3.497362299996894, 3.717494299984537, 3.8416706999996677, 4.10554879999836, 4.195446099998662, 4.309353899996495, 4.4895020999829285, 4.607413899997482, 4.773553199978778, 6.499545400001807, 6.7033931000041775, 6.803364799998235, 7.05546449997928, 7.215438799990807, 7.46566299998085, 7.611384399991948, 7.801438800001051, 8.231524399976479, 8.489406899985624, 8.817559199989773]",302.0094880000106,302.0094880000106,302.0094880000106,1,2,2023-02-22_14h27.01.318,Memory and Syntax,2022.2.5,164.98301498931562,
klin lu vode lu neep,,0,2,2,0,0,2,2,0,brocanto/stims/to_use/sentence17.png,"['brocanto/stims/to_use/sentence31.png', 'brocanto/stims/to_use/sentence65.png', 'brocanto/stims/to_use/sentence63.png', 'brocanto/stims/to_use/sentence68.png', 'brocanto/stims/to_use/sentence39.png', 'brocanto/stims/to_use/sentence14.png', 'brocanto/stims/to_use/sentence105.png', 'brocanto/stims/to_use/sentence103.png', 'brocanto/stims/to_use/sentence12.png', 'brocanto/stims/to_use/sentence29.png', 'brocanto/stims/to_use/sentence70.png', 'brocanto/stims/to_use/sentence107.png', 'brocanto/stims/to_use/sentence32.png', 'brocanto/stims/to_use/sentence26.png', 'brocanto/stims/to_use/sentence35.png', 'brocanto/stims/to_use/sentence79.png', 'brocanto/stims/to_use/sentence71.png', 'brocanto/stims/to_use/sentence75.png', 'brocanto/stims/to_use/sentence72.png', 'brocanto/stims/to_use/sentence36.png', 'brocanto/stims/to_use/sentence53.png', 'brocanto/stims/to_use/sentence69.png', 'brocanto/stims/to_use/sentence104.png', 'brocanto/stims/to_use/sentence89.png', 'brocanto/stims/to_use/sentence102.png', 'brocanto/stims/to_use/sentence44.png', 'brocanto/stims/to_use/sentence34.png']",,,,,0,0,0,0,,,,,,,,,,,,,0,1,1,1,,,,,0,0,0,0,0,8,8,8,,,,,,,,,,,,,,,303.0600534999976,303.5500283000001,303.5500283000001,303.6984495999932,klin lu vode lu neep,"[0.9235077000048477, 0.2381650999886915, 1.151349299994763, 0.3742109999875538, 1.3034602999978233, 1.4701945999986492, 1.5456282999948598, 1.677926700009266, 2.5594838999968488, 1.8162115000013728, 2.6793770999938715, 1.9801111000124365, 2.809434799972223, 2.628198100021109, 3.041338299983181, 2.862147500010906, 3.5656985999667086, 2.9599374000390526, 3.7377088999492116, 3.0797141000512056, 4.01989799994044]",303.6984495999932,303.6984495999932,303.6984495999932,"['k', 'l', 'i', 'n', 'space', 'l', 'u', 'space', 'v', 'o', 'd', 'e', 'space', 'l', 'u', 'space', 'n', 'e', 'e', 'p', 'return']","[0.9235077000048477, 1.1616727999935392, 1.3895143999834545, 1.5255602999823168, 1.6776712999853771, 2.7736548999964725, 3.015822899993509, 3.2235550000041258, 4.237410600006115, 4.3756953999982215, 4.495588599995244, 4.659488200006308, 4.78954589998466, 5.437632899993332, 5.66953640000429, 5.903485799994087, 6.427846099977614, 6.525636000005761, 6.697646299988264, 6.817423000000417, 7.099612099991646]",310.8090519999969,310.8090519999969,310.8090519999969,1,2,2023-02-22_14h27.01.318,Memory and Syntax,2022.2.5,164.98301498931562,
klin lu blom lu neep,,0,2,2,0,0,2,2,0,brocanto/stims/to_use/sentence12.png,"['brocanto/stims/to_use/sentence31.png', 'brocanto/stims/to_use/sentence65.png', 'brocanto/stims/to_use/sentence63.png', 'brocanto/stims/to_use/sentence68.png', 'brocanto/stims/to_use/sentence39.png', 'brocanto/stims/to_use/sentence14.png', 'brocanto/stims/to_use/sentence105.png', 'brocanto/stims/to_use/sentence103.png', 'brocanto/stims/to_use/sentence17.png', 'brocanto/stims/to_use/sentence29.png', 'brocanto/stims/to_use/sentence70.png', 'brocanto/stims/to_use/sentence107.png', 'brocanto/stims/to_use/sentence32.png', 'brocanto/stims/to_use/sentence26.png', 'brocanto/stims/to_use/sentence35.png', 'brocanto/stims/to_use/sentence79.png', 'brocanto/stims/to_use/sentence71.png', 'brocanto/stims/to_use/sentence75.png', 'brocanto/stims/to_use/sentence72.png', 'brocanto/stims/to_use/sentence36.png', 'brocanto/stims/to_use/sentence53.png', 'brocanto/stims/to_use/sentence69.png', 'brocanto/stims/to_use/sentence104.png', 'brocanto/stims/to_use/sentence89.png', 'brocanto/stims/to_use/sentence102.png', 'brocanto/stims/to_use/sentence44.png', 'brocanto/stims/to_use/sentence34.png']",,,,,0,0,0,0,,,,,,,,,,,,,0,1,1,1,,,,,0,0,0,0,0,9,9,9,,,,,,,,,,,,,,,311.84957540000323,312.34373590000905,312.34373590000905,312.4829860999889,klin lu blom lu neep,"[0.874970700009726, 0.20434409999870695, 1.0825700999994297, 0.34254569999757223, 1.260425500018755, 0.858519699977478, 1.5244800000218675, 1.0706208999908995, 1.7065361000131816, 1.1562503000022843, 1.8946117000014056, 1.2945316999976058, 2.076593200006755, 1.8163815999869257, 2.3346833000250626, 2.040276999992784, 2.4866871000267565, 2.1865944999735802, 2.652323400019668, 2.268723499990301, 3.208491600002162]",312.4829860999889,312.4829860999889,312.4829860999889,"['k', 'l', 'i', 'n', 'space', 'l', 'u', 'space', 'b', 'l', 'o', 'm', 'space', 'l', 'u', 'space', 'n', 'e', 'e', 'p', 'return']","[0.874970700009726, 1.079314800008433, 1.2869141999981366, 1.4251157999970019, 1.6029712000163272, 2.118945199996233, 2.3829996999993455, 2.595100900012767, 2.777157000004081, 2.862786400015466, 3.05086200000369, 3.1891433999990113, 3.371124900004361, 3.892974799993681, 4.151064900011988, 4.374960300017847, 4.526964100019541, 4.673281600000337, 4.838917899993248, 4.921046900009969, 5.477215099992463]",317.97119199999725,317.97119199999725,317.97119199999725,1,2,2023-02-22_14h27.01.318,Memory and Syntax,2022.2.5,164.98301498931562,
klin lu neimo lu vode,,0,2,2,0,0,2,2,0,brocanto/stims/to_use/sentence29.png,"['brocanto/stims/to_use/sentence31.png', 'brocanto/stims/to_use/sentence65.png', 'brocanto/stims/to_use/sentence63.png', 'brocanto/stims/to_use/sentence68.png', 'brocanto/stims/to_use/sentence39.png', 'brocanto/stims/to_use/sentence14.png', 'brocanto/stims/to_use/sentence105.png', 'brocanto/stims/to_use/sentence103.png', 'brocanto/stims/to_use/sentence17.png', 'brocanto/stims/to_use/sentence12.png', 'brocanto/stims/to_use/sentence70.png', 'brocanto/stims/to_use/sentence107.png', 'brocanto/stims/to_use/sentence32.png', 'brocanto/stims/to_use/sentence26.png', 'brocanto/stims/to_use/sentence35.png', 'brocanto/stims/to_use/sentence79.png', 'brocanto/stims/to_use/sentence71.png', 'brocanto/stims/to_use/sentence75.png', 'brocanto/stims/to_use/sentence72.png', 'brocanto/stims/to_use/sentence36.png', 'brocanto/stims/to_use/sentence53.png', 'brocanto/stims/to_use/sentence69.png', 'brocanto/stims/to_use/sentence104.png', 'brocanto/stims/to_use/sentence89.png', 'brocanto/stims/to_use/sentence102.png', 'brocanto/stims/to_use/sentence44.png', 'brocanto/stims/to_use/sentence34.png']",,,,,0,0,0,0,,,,,,,,,,,,,0,1,1,1,,,,,0,0,0,0,0,10,10,10,,,,,,,,,,,,,,,319.0028314999945,319.4951863999886,319.4951863999886,319.6237276000029,klin lu neimo lu vode,"[1.048433499992825, 0.22778820001985878, 1.2664023999823257, 0.3498200000321958, 1.4643245999759529, 0.8620648000214715, 1.7182921999774408, 1.028031700028805, 3.1742621999874245, 1.1439600000157952, 3.2663366999768186, 1.2859520000347402, 3.458444799965946, 1.4638377000228502, 3.6043134999927133, 1.6878607000107877, 3.84657779999543, 3.479778900014935, 3.9625235999992583, 3.5895979999913834, 4.130792700016173, 3.803432499989867]",319.6237276000029,319.6237276000029,319.6237276000029,"['k', 'l', 'i', 'n', 'space', 'l', 'u', 'space', 'n', 'e', 'i', 'm', 'o', 'space', 'l', 'u', 'space', 'v', 'o', 'd', 'e', 'return']","[1.048433499992825, 1.2762217000126839, 1.4941906000021845, 1.6162224000145216, 1.8141446000081487, 2.3263893999974243, 2.580356999998912, 2.746323900006246, 4.20229390001623, 4.31822220000322, 4.410296699992614, 4.552288700011559, 4.744396800000686, 4.922282499988796, 5.0681512000155635, 5.292174200003501, 5.5344385000062175, 7.326356700010365, 7.442302500014193, 7.552121599990642, 7.720390700007556, 7.93422520000604]",327.57087299998966,327.57087299998966,327.57087299998966,1,2,2023-02-22_14h27.01.318,Memory and Syntax,2022.2.5,164.98301498931562,
lu vode praz li,,0,2,2,0,0,2,2,0,brocanto/stims/to_use/sentence70.png,"['brocanto/stims/to_use/sentence31.png', 'brocanto/stims/to_use/sentence65.png', 'brocanto/stims/to_use/sentence63.png', 'brocanto/stims/to_use/sentence68.png', 'brocanto/stims/to_use/sentence39.png', 'brocanto/stims/to_use/sentence14.png', 'brocanto/stims/to_use/sentence105.png', 'brocanto/stims/to_use/sentence103.png', 'brocanto/stims/to_use/sentence17.png', 'brocanto/stims/to_use/sentence12.png', 'brocanto/stims/to_use/sentence29.png', 'brocanto/stims/to_use/sentence107.png', 'brocanto/stims/to_use/sentence32.png', 'brocanto/stims/to_use/sentence26.png', 'brocanto/stims/to_use/sentence35.png', 'brocanto/stims/to_use/sentence79.png', 'brocanto/stims/to_use/sentence71.png', 'brocanto/stims/to_use/sentence75.png', 'brocanto/stims/to_use/sentence72.png', 'brocanto/stims/to_use/sentence36.png', 'brocanto/stims/to_use/sentence53.png', 'brocanto/stims/to_use/sentence69.png', 'brocanto/stims/to_use/sentence104.png', 'brocanto/stims/to_use/sentence89.png', 'brocanto/stims/to_use/sentence102.png', 'brocanto/stims/to_use/sentence44.png', 'brocanto/stims/to_use/sentence34.png']",,,,,0,0,0,0,,,,,,,,,,,,,0,1,1,1,,,,,0,0,0,0,0,11,11,11,,,,,,,,,,,,,,,328.58603390000644,329.07676599998376,329.07676599998376,329.18922890000977,lu vode praz li,"[1.6766981999971904, 0.2259388999955263, 1.8488840000063647, 1.2478125999914482, 1.966913400014164, 1.3677972999867052, 2.1967206000117585, 1.8039894999819808, 2.3467093000072055, 1.9920573999988846, 2.702798199985409, 2.1719452000106685, 2.9287438999745063, 2.4999772000301164, 3.198722999950405, 2.7140352000424173, 3.3607051999424584, 3.500024500041036]",329.18922890000977,329.18922890000977,329.18922890000977,"['l', 'u', 'space', 'v', 'o', 'd', 'e', 'r', 'backspace', 'e', 'space', 'p', 'r', 'a', 'z', 'space', 'l', 'i', 'return']","[1.6766981999971904, 1.9026370999927167, 2.074822900001891, 3.096696599997813, 3.214726000005612, 3.334710700000869, 3.562714400002733, 3.5645178999984637, 4.000710099993739, 4.150698799989186, 4.33876670000609, 4.694855599984294, 4.874743399996078, 5.100689099985175, 5.428721100004623, 5.698700199980522, 5.9127581999928225, 6.074740399984876, 6.860729699983494]",336.06167170000845,336.06167170000845,336.06167170000845,1,2,2023-02-22_14h27.01.318,Memory and Syntax,2022.2.5,164.98301498931562,
lu troise zayma li,,0,2,2,0,0,2,2,0,brocanto/stims/to_use/sentence107.png,"['brocanto/stims/to_use/sentence31.png', 'brocanto/stims/to_use/sentence65.png', 'brocanto/stims/to_use/sentence63.png', 'brocanto/stims/to_use/sentence68.png', 'brocanto/stims/to_use/sentence39.png', 'brocanto/stims/to_use/sentence14.png', 'brocanto/stims/to_use/sentence105.png', 'brocanto/stims/to_use/sentence103.png', 'brocanto/stims/to_use/sentence17.png', 'brocanto/stims/to_use/sentence12.png', 'brocanto/stims/to_use/sentence29.png', 'brocanto/stims/to_use/sentence70.png', 'brocanto/stims/to_use/sentence32.png', 'brocanto/stims/to_use/sentence26.png', 'brocanto/stims/to_use/sentence35.png', 'brocanto/stims/to_use/sentence79.png', 'brocanto/stims/to_use/sentence71.png', 'brocanto/stims/to_use/sentence75.png', 'brocanto/stims/to_use/sentence72.png', 'brocanto/stims/to_use/sentence36.png', 'brocanto/stims/to_use/sentence53.png', 'brocanto/stims/to_use/sentence69.png', 'brocanto/stims/to_use/sentence104.png', 'brocanto/stims/to_use/sentence89.png', 'brocanto/stims/to_use/sentence102.png', 'brocanto/stims/to_use/sentence44.png', 'brocanto/stims/to_use/sentence34.png']",,,,,0,0,0,0,,,,,,,,,,,,,0,1,1,1,,,,,0,0,0,0,0,12,12,12,,,,,,,,,,,,,,,337.0697525999858,337.56136220000917,337.56136220000917,337.66662139998516,lu troise zayma li,"[1.1673142999934498, 0.31600250001065433, 1.8712567999900784, 0.5041256000113208, 2.0050986999995075, 1.3641421000065748, 2.1433559999859426, 1.6219558000157122, 2.3275320999964606, 2.135957199992845, 2.5294278000073973, 2.2700312999950256, 2.8872364000126254, 2.6900412999966647, 3.0752916999917943, 3.0021906000038143, 3.8230938999913633, 3.208206900017103, 3.9532977999770083, 3.4940599000256043, 4.1152850999787915, 3.585880500031635, 4.371372799971141, 3.7720392000337597, 4.673325099953217]",337.66662139998516,337.66662139998516,337.66662139998516,"['l', 'u', 'space', 'p', 'l', 'backspace', 'backspace', 't', 'r', 'o', 'i', 's', 'e', 'space', 'backspace', 'e', 'space', 'z', 'a', 'y', 'm', 'a', 'space', 'l', 'i', 'return']","[1.1673142999934498, 1.4833168000041042, 2.1872593000007328, 2.375382400001399, 2.5092243000108283, 3.3692408000060823, 3.5074980999925174, 3.7653118000016548, 3.9494879000121728, 4.463489299989305, 4.665385000000242, 4.799459100002423, 4.949545300012687, 5.157267700007651, 5.57727770000929, 5.765332999988459, 6.077482299995609, 6.825284499995178, 7.0313008000084665, 7.161504699994111, 7.4473577000026125, 7.609345000004396, 7.701165600010427, 7.957253300002776, 8.1434120000049, 8.445364299986977]",346.1229441000032,346.1229441000032,346.1229441000032,1,2,2023-02-22_14h27.01.318,Memory and Syntax,2022.2.5,164.98301498931562,
lu neep nim li,,0,2,2,0,0,2,2,0,brocanto/stims/to_use/sentence32.png,"['brocanto/stims/to_use/sentence31.png', 'brocanto/stims/to_use/sentence65.png', 'brocanto/stims/to_use/sentence63.png', 'brocanto/stims/to_use/sentence68.png', 'brocanto/stims/to_use/sentence39.png', 'brocanto/stims/to_use/sentence14.png', 'brocanto/stims/to_use/sentence105.png', 'brocanto/stims/to_use/sentence103.png', 'brocanto/stims/to_use/sentence17.png', 'brocanto/stims/to_use/sentence12.png', 'brocanto/stims/to_use/sentence29.png', 'brocanto/stims/to_use/sentence70.png', 'brocanto/stims/to_use/sentence107.png', 'brocanto/stims/to_use/sentence26.png', 'brocanto/stims/to_use/sentence35.png', 'brocanto/stims/to_use/sentence79.png', 'brocanto/stims/to_use/sentence71.png', 'brocanto/stims/to_use/sentence75.png', 'brocanto/stims/to_use/sentence72.png', 'brocanto/stims/to_use/sentence36.png', 'brocanto/stims/to_use/sentence53.png', 'brocanto/stims/to_use/sentence69.png', 'brocanto/stims/to_use/sentence104.png', 'brocanto/stims/to_use/sentence89.png', 'brocanto/stims/to_use/sentence102.png', 'brocanto/stims/to_use/sentence44.png', 'brocanto/stims/to_use/sentence34.png']",,,,,0,0,0,0,,,,,,,,,,,,,0,1,1,1,,,,,0,0,0,0,0,13,13,13,,,,,,,,,,,,,,,347.13518149999436,347.62789139998495,347.62789139998495,347.7382835999888,lu neep nim li,"[0.7258027000061702, 0.32584189999033697, 0.9798370999924373, 1.915965199994389, 1.241631300013978, 2.098074599984102, 1.511579600017285, 2.2561659999773838, 5.531542700016871, 2.458087099978002, 5.709564200020395, 2.6481766999640968, 5.875478300033137, 2.8501871999469586, 6.599368000053801]",347.7382835999888,347.7382835999888,347.7382835999888,"['l', 'u', 'space', 'n', 'e', 'e', 'p', 'space', 'n', 'i', 'm', 'space', 'l', 'i', 'return']","[0.7258027000061702, 1.0516445999965072, 1.3056789999827743, 2.8958022999868263, 3.157596500008367, 3.33970589999808, 3.609654200001387, 3.7677455999946687, 7.787708699994255, 7.989629799994873, 8.167651299998397, 8.357740899984492, 8.523654999997234, 8.725665499980096, 9.44955520000076]",357.20097619999433,357.20097619999433,357.20097619999433,1,2,2023-02-22_14h27.01.318,Memory and Syntax,2022.2.5,164.98301498931562,
klin lu neimo lu pleck,,0,2,2,0,0,2,2,0,brocanto/stims/to_use/sentence26.png,"['brocanto/stims/to_use/sentence31.png', 'brocanto/stims/to_use/sentence65.png', 'brocanto/stims/to_use/sentence63.png', 'brocanto/stims/to_use/sentence68.png', 'brocanto/stims/to_use/sentence39.png', 'brocanto/stims/to_use/sentence14.png', 'brocanto/stims/to_use/sentence105.png', 'brocanto/stims/to_use/sentence103.png', 'brocanto/stims/to_use/sentence17.png', 'brocanto/stims/to_use/sentence12.png', 'brocanto/stims/to_use/sentence29.png', 'brocanto/stims/to_use/sentence70.png', 'brocanto/stims/to_use/sentence107.png', 'brocanto/stims/to_use/sentence32.png', 'brocanto/stims/to_use/sentence35.png', 'brocanto/stims/to_use/sentence79.png', 'brocanto/stims/to_use/sentence71.png', 'brocanto/stims/to_use/sentence75.png', 'brocanto/stims/to_use/sentence72.png', 'brocanto/stims/to_use/sentence36.png', 'brocanto/stims/to_use/sentence53.png', 'brocanto/stims/to_use/sentence69.png', 'brocanto/stims/to_use/sentence104.png', 'brocanto/stims/to_use/sentence89.png', 'brocanto/stims/to_use/sentence102.png', 'brocanto/stims/to_use/sentence44.png', 'brocanto/stims/to_use/sentence34.png']",,,,,0,0,0,0,,,,,,,,,,,,,0,1,1,1,,,,,0,0,0,0,0,14,14,14,,,,,,,,,,,,,,,358.22682419998455,358.7185596000054,358.7185596000054,358.8414388000092,klin lu neimo lu pleck,"[0.9645287000166718, 0.23591949997353368, 1.1845712000213098, 0.36604359999182634, 1.3984226000029594, 1.2800897000124678, 1.6244577000034042, 1.4600711000093725, 3.556712699995842, 1.577729200012982, 3.650685500004329, 1.7479363000020385, 3.88056580000557, 2.345908599992981, 4.128550800000085, 2.5119299000070896, 4.264514499984216, 2.720048700022744, 4.486403699993389, 2.804088800010504, 4.572291299991775, 2.8862818000197876, 4.774133499973686, 2.9943398000323214, 5.056182899978012]",358.8414388000092,358.8414388000092,358.8414388000092,"['k', 'l', 'i', 'n', 'space', 'l', 'u', 'space', 'n', 'e', 'i', 'm', 'p', 'backspace', 'o', 'space', 'l', 'u', 'space', 'p', 'l', 'e', 'c', 'k', 'return']","[0.9645287000166718, 1.2004481999902055, 1.4204906999948435, 1.5506148000131361, 1.7644661999947857, 2.678512300015427, 2.904547400015872, 3.0845288000127766, 5.016783800005214, 5.134441900008824, 5.228414700017311, 5.398621800006367, 5.6285021000076085, 6.226474399998551, 6.474459399993066, 6.640480700007174, 6.7764443999913055, 6.98456320000696, 7.206452400016133, 7.290492500003893, 7.3763801000022795, 7.458573100011563, 7.660415299993474, 7.768473300006008, 8.050522700010333]",366.90370809999877,366.90370809999877,366.90370809999877,1,2,2023-02-22_14h27.01.318,Memory and Syntax,2022.2.5,164.98301498931562,
lu troise nim li,,0,2,2,0,0,2,2,0,brocanto/stims/to_use/sentence35.png,"['brocanto/stims/to_use/sentence31.png', 'brocanto/stims/to_use/sentence65.png', 'brocanto/stims/to_use/sentence63.png', 'brocanto/stims/to_use/sentence68.png', 'brocanto/stims/to_use/sentence39.png', 'brocanto/stims/to_use/sentence14.png', 'brocanto/stims/to_use/sentence105.png', 'brocanto/stims/to_use/sentence103.png', 'brocanto/stims/to_use/sentence17.png', 'brocanto/stims/to_use/sentence12.png', 'brocanto/stims/to_use/sentence29.png', 'brocanto/stims/to_use/sentence70.png', 'brocanto/stims/to_use/sentence107.png', 'brocanto/stims/to_use/sentence32.png', 'brocanto/stims/to_use/sentence26.png', 'brocanto/stims/to_use/sentence79.png', 'brocanto/stims/to_use/sentence71.png', 'brocanto/stims/to_use/sentence75.png', 'brocanto/stims/to_use/sentence72.png', 'brocanto/stims/to_use/sentence36.png', 'brocanto/stims/to_use/sentence53.png', 'brocanto/stims/to_use/sentence69.png', 'brocanto/stims/to_use/sentence104.png', 'brocanto/stims/to_use/sentence89.png', 'brocanto/stims/to_use/sentence102.png', 'brocanto/stims/to_use/sentence44.png', 'brocanto/stims/to_use/sentence34.png']",,,,,0,0,0,0,,,,,,,,,,,,,0,1,1,1,,,,,0,0,0,0,0,15,15,15,,,,,,,,,,,,,,,367.91201090000686,368.4031743000087,368.4031743000087,368.5124897999922,lu troise nim li,"[2.2694168999732938, 0.2401308000262361, 2.4154599999601487, 2.2039731000259053, 2.5994585999578703, 2.377914300042903, 2.787410299933981, 2.4939921000623144, 2.9033352999249473, 3.3261760000605136, 3.1432245999167208, 3.5201839000801556, 3.5812376998947, 3.6504540001042187, 3.7470250998740084, 3.894389400113141, 3.9170923998754006, 4.118327200121712, 4.117086399870459, 4.374409600102808, 4.613294599897927, 4.926244300091639, 5.099150699883467, 5.350371000095038, 5.677048999903491]",368.5124897999922,368.5124897999922,368.5124897999922,"['l', 'u', 'space', 't', 'r', 'o', 'i', 's', 'e', 'space', 'n', 'i', 'm', 'backspace', 'backspace', 'backspace', 'space', 'n', 'i', 'm', 'space', 'l', 'i', 'backspace', 'l', 'i', 'return']","[2.2694168999732938, 2.50954769999953, 2.655590799986385, 4.619433099986054, 4.803431699983776, 4.977372900000773, 5.165324599976884, 5.281402399996296, 5.397327399987262, 5.581425699987449, 6.229511299985461, 6.469400599977234, 6.663408499996876, 7.101421599974856, 7.231691699998919, 7.397479099978227, 7.64141449998715, 7.811481799988542, 8.035419599997113, 8.235413599992171, 8.491495999973267, 8.757577799988212, 8.987704200000735, 9.539538899989566, 10.025394999975106, 10.449521699978504, 11.027419999998529]",379.5523205999925,379.5523205999925,379.5523205999925,1,2,2023-02-22_14h27.01.318,Memory and Syntax,2022.2.5,164.98301498931562,
noyka lu neep lu blom,,0,2,2,0,0,2,2,0,brocanto/stims/to_use/sentence79.png,"['brocanto/stims/to_use/sentence31.png', 'brocanto/stims/to_use/sentence65.png', 'brocanto/stims/to_use/sentence63.png', 'brocanto/stims/to_use/sentence68.png', 'brocanto/stims/to_use/sentence39.png', 'brocanto/stims/to_use/sentence14.png', 'brocanto/stims/to_use/sentence105.png', 'brocanto/stims/to_use/sentence103.png', 'brocanto/stims/to_use/sentence17.png', 'brocanto/stims/to_use/sentence12.png', 'brocanto/stims/to_use/sentence29.png', 'brocanto/stims/to_use/sentence70.png', 'brocanto/stims/to_use/sentence107.png', 'brocanto/stims/to_use/sentence32.png', 'brocanto/stims/to_use/sentence26.png', 'brocanto/stims/to_use/sentence35.png', 'brocanto/stims/to_use/sentence71.png', 'brocanto/stims/to_use/sentence75.png', 'brocanto/stims/to_use/sentence72.png', 'brocanto/stims/to_use/sentence36.png', 'brocanto/stims/to_use/sentence53.png', 'brocanto/stims/to_use/sentence69.png', 'brocanto/stims/to_use/sentence104.png', 'brocanto/stims/to_use/sentence89.png', 'brocanto/stims/to_use/sentence102.png', 'brocanto/stims/to_use/sentence44.png', 'brocanto/stims/to_use/sentence34.png']",,,,,0,0,0,0,,,,,,,,,,,,,0,1,1,1,,,,,0,0,0,0,0,16,16,16,,,,,,,,,,,,,,,380.56713239999954,381.0634386999882,381.0634386999882,381.18105990000186,noyka lu neep lu blom,"[8.424833400000352, 0.33192789999884553, 8.57895350002218, 0.7280142999952659, 8.70689170001424, 1.8620125000015832, 8.940814600005979, 2.0680556000152137, 9.234875699999975, 2.2019219000067096, 9.882892699999502, 2.561925500020152, 10.440971999982139, 2.8539696000225376, 11.01486169997952, 3.0259274000418372, 11.16886529995827, 3.195943300059298, 11.490950999956112, 3.3321243000391405, 11.648616099962965, 3.4763639000593685, 12.030505199945765, 3.800308700068854, 12.262528999941424, 3.9625843000540044, 12.5603152999538, 4.346546100045089, 13.07654349997756, 4.5884433000173885, 13.250428100000136, 4.814584400010062, 13.43423119999352, 4.988584600010654, 13.550195599993458, 5.168713800027035, 13.678174799977569, 5.486672200029716]",381.18105990000186,381.18105990000186,381.18105990000186,"['n', 'o', 'y', 'k', 'a', 'space', 'l', 'u', 'space', 'backspace', 'backspace', 'backspace', 'space', 'backspace', 'space', 'l', 'u', 'space', 'n', 'e', 'e', 'p', 'backspace', 'backspace', 'backspace', 'backspace', 'space', 'n', 'e', 'e', 'p', 'space', 'backspace', 'p', 'space', 'l', 'u', 'space', 'b', 'l', 'o', 'm', 'return']","[8.424833400000352, 8.756761299999198, 8.910881400021026, 9.306967800017446, 9.434906000009505, 9.548905000003288, 10.568904200015822, 10.802827100007562, 11.008870200021192, 11.302931300015189, 11.436797600006685, 11.560958899994148, 11.748937500000466, 12.084814600006212, 12.444818200019654, 13.002897500002291, 13.294941600004677, 13.573108200012939, 13.868831300002057, 14.040789100021357, 14.194792700000107, 14.364808600017568, 14.68689430001541, 14.823075299995253, 14.980740400002105, 15.124980000022333, 15.506869100005133, 15.830813900014618, 16.062837700010277, 16.225113299995428, 16.360998599993763, 16.522899600007804, 16.90686139999889, 17.42308960002265, 17.66498679999495, 17.838871400017524, 18.065012500010198, 18.24881560000358, 18.422815800004173, 18.538780200004112, 18.718909400020493, 18.846888600004604, 19.164847000007285]",400.357663200004,400.357663200004,400.357663200004,1,2,2023-02-22_14h27.01.318,Memory and Syntax,2022.2.5,164.98301498931562,
lu troise praz li,,0,2,2,0,0,2,2,0,brocanto/stims/to_use/sentence71.png,"['brocanto/stims/to_use/sentence31.png', 'brocanto/stims/to_use/sentence65.png', 'brocanto/stims/to_use/sentence63.png', 'brocanto/stims/to_use/sentence68.png', 'brocanto/stims/to_use/sentence39.png', 'brocanto/stims/to_use/sentence14.png', 'brocanto/stims/to_use/sentence105.png', 'brocanto/stims/to_use/sentence103.png', 'brocanto/stims/to_use/sentence17.png', 'brocanto/stims/to_use/sentence12.png', 'brocanto/stims/to_use/sentence29.png', 'brocanto/stims/to_use/sentence70.png', 'brocanto/stims/to_use/sentence107.png', 'brocanto/stims/to_use/sentence32.png', 'brocanto/stims/to_use/sentence26.png', 'brocanto/stims/to_use/sentence35.png', 'brocanto/stims/to_use/sentence79.png', 'brocanto/stims/to_use/sentence75.png', 'brocanto/stims/to_use/sentence72.png', 'brocanto/stims/to_use/sentence36.png', 'brocanto/stims/to_use/sentence53.png', 'brocanto/stims/to_use/sentence69.png', 'brocanto/stims/to_use/sentence104.png', 'brocanto/stims/to_use/sentence89.png', 'brocanto/stims/to_use/sentence102.png', 'brocanto/stims/to_use/sentence44.png', 'brocanto/stims/to_use/sentence34.png']",,,,,0,0,0,0,,,,,,,,,,,,,0,1,1,1,,,,,0,0,0,0,0,17,17,17,,,,,,,,,,,,,,,401.37201990000904,401.8630613999849,401.8630613999849,401.97745889998623,lu troise praz li,"[2.1844267999986187, 0.25402540000504814, 2.344390700018266, 0.45790059998398647, 2.4526357000286225, 1.0677845999889541, 2.580653400014853, 1.2378356000117492, 2.754645700013498, 1.339793599996483, 2.934642900014296, 1.4157929999928456, 3.07260050001787, 1.6098883000086062, 4.838603700016392, 1.7358225999923889, 5.094662300019991, 1.989777699986007, 5.536709800013341, 2.219698900007643, 5.707151500013424, 2.541280600009486]",401.97745889998623,401.97745889998623,401.97745889998623,"['l', 'u', 'space', 'p', 'l', 'backspace', 'backspace', 't', 'r', 'o', 'i', 's', 'e', 'space', 'p', 'r', 'a', 'z', 'space', 'l', 'i', 'return']","[2.1844267999986187, 2.438452200003667, 2.5984161000233144, 2.8022913000022527, 2.910536300012609, 3.5204203000175767, 3.6484380000038072, 3.8184890000266023, 3.992481300025247, 4.094439300009981, 4.274436500010779, 4.350435900007142, 4.488393500010716, 4.682488800026476, 6.448492000024999, 6.574426300008781, 6.8304849000123795, 7.084440000005998, 7.526487499999348, 7.756408700020984, 7.926850400021067, 8.24843210002291]",410.2368206999963,410.2368206999963,410.2368206999963,1,2,2023-02-22_14h27.01.318,Memory and Syntax,2022.2.5,164.98301498931562,
noyka lu pleck lu vode,,0,2,2,0,0,2,2,0,brocanto/stims/to_use/sentence75.png,"['brocanto/stims/to_use/sentence31.png', 'brocanto/stims/to_use/sentence65.png', 'brocanto/stims/to_use/sentence63.png', 'brocanto/stims/to_use/sentence68.png', 'brocanto/stims/to_use/sentence39.png', 'brocanto/stims/to_use/sentence14.png', 'brocanto/stims/to_use/sentence105.png', 'brocanto/stims/to_use/sentence103.png', 'brocanto/stims/to_use/sentence17.png', 'brocanto/stims/to_use/sentence12.png', 'brocanto/stims/to_use/sentence29.png', 'brocanto/stims/to_use/sentence70.png', 'brocanto/stims/to_use/sentence107.png', 'brocanto/stims/to_use/sentence32.png', 'brocanto/stims/to_use/sentence26.png', 'brocanto/stims/to_use/sentence35.png', 'brocanto/stims/to_use/sentence79.png', 'brocanto/stims/to_use/sentence71.png', 'brocanto/stims/to_use/sentence72.png', 'brocanto/stims/to_use/sentence36.png', 'brocanto/stims/to_use/sentence53.png', 'brocanto/stims/to_use/sentence69.png', 'brocanto/stims/to_use/sentence104.png', 'brocanto/stims/to_use/sentence89.png', 'brocanto/stims/to_use/sentence102.png', 'brocanto/stims/to_use/sentence44.png', 'brocanto/stims/to_use/sentence34.png']",,,,,0,0,0,0,,,,,,,,,,,,,0,1,1,1,,,,,0,0,0,0,0,18,18,18,,,,,,,,,,,,,,,411.2581027999986,411.74760299999616,411.74760299999616,411.8651535999961,noyka lu pleck lu vode,"[1.406684400019003, 0.22004200000083074, 1.5429685999988578, 0.417761300021084, 1.6929574999958277, 0.52983920002589, 2.1348602999933064, 0.773774900007993, 2.316937900002813, 0.9137408999959007, 2.401071200030856, 1.0036117999698035, 2.6431716000370216, 1.1355291999643669, 2.7692107000621036, 1.261474599945359, 2.9691892000555526, 1.4995318999572191, 4.199167600047076, 1.5952921999560203, 4.339395200047875, 1.7533161999599542, 4.603477500058943]",411.8651535999961,411.8651535999961,411.8651535999961,"['n', 'o', 'y', 'k', 'a', 'space', 'l', 'u', 'space', 'p', 'l', 'e', 'c', 'k', 'space', 'l', 'u', 'space', 'v', 'o', 'd', 'e', 'return']","[1.406684400019003, 1.6267264000198338, 1.7630105999996886, 1.9607299000199419, 2.1107188000169117, 2.2227967000217177, 2.6646995000191964, 2.9086352000012994, 3.090712800010806, 3.2306787999987137, 3.3148121000267565, 3.4046830000006594, 3.646783400006825, 3.7787008000013884, 3.9047399000264704, 4.0306853000074625, 4.230663800000912, 4.468721100012772, 5.698699500004295, 5.7944598000030965, 5.934687400003895, 6.092711400007829, 6.356793700018898]",418.23722499998985,418.23722499998985,418.23722499998985,1,2,2023-02-22_14h27.01.318,Memory and Syntax,2022.2.5,164.98301498931562,
lu neimo praz li,,0,2,2,0,0,2,2,0,brocanto/stims/to_use/sentence72.png,"['brocanto/stims/to_use/sentence31.png', 'brocanto/stims/to_use/sentence65.png', 'brocanto/stims/to_use/sentence63.png', 'brocanto/stims/to_use/sentence68.png', 'brocanto/stims/to_use/sentence39.png', 'brocanto/stims/to_use/sentence14.png', 'brocanto/stims/to_use/sentence105.png', 'brocanto/stims/to_use/sentence103.png', 'brocanto/stims/to_use/sentence17.png', 'brocanto/stims/to_use/sentence12.png', 'brocanto/stims/to_use/sentence29.png', 'brocanto/stims/to_use/sentence70.png', 'brocanto/stims/to_use/sentence107.png', 'brocanto/stims/to_use/sentence32.png', 'brocanto/stims/to_use/sentence26.png', 'brocanto/stims/to_use/sentence35.png', 'brocanto/stims/to_use/sentence79.png', 'brocanto/stims/to_use/sentence71.png', 'brocanto/stims/to_use/sentence75.png', 'brocanto/stims/to_use/sentence36.png', 'brocanto/stims/to_use/sentence53.png', 'brocanto/stims/to_use/sentence69.png', 'brocanto/stims/to_use/sentence104.png', 'brocanto/stims/to_use/sentence89.png', 'brocanto/stims/to_use/sentence102.png', 'brocanto/stims/to_use/sentence44.png', 'brocanto/stims/to_use/sentence34.png']",,,,,0,0,0,0,,,,,,,,,,,,,0,1,1,1,,,,,0,0,0,0,0,19,19,19,,,,,,,,,,,,,,,419.24672470000223,419.74137860001065,419.74137860001065,419.849770300003,lu neimo praz li,"[1.4322476999950595, 0.1978514000074938, 1.5842280999931972, 0.6818907000124454, 1.8943001999869011, 0.8957934000063688, 1.9824199999857228, 0.9976842000032775, 2.1365475000056904, 1.1656239999865647, 2.292457800009288, 1.731641699996544, 2.3665582000103313, 1.977553499978967, 2.670558100013295, 2.4115313999936916, 2.8865552000061143, 2.5654682999884244, 3.2607040000148118]",419.849770300003,419.849770300003,419.849770300003,"['l', 'u', 'space', 't', 'backspace', 'n', 'e', 'i', 'm', 'o', 'space', 'p', 'r', 'a', 'z', 'space', 'l', 'i', 'return']","[1.4322476999950595, 1.6300991000025533, 1.782079500000691, 2.2661188000056427, 2.5761908999993466, 2.79009359999327, 2.8782133999920916, 2.9801041999890003, 3.134231700008968, 3.302171499992255, 3.4580817999958526, 4.024099500005832, 4.098199900006875, 4.344111699989298, 4.648111599992262, 5.082089500006987, 5.298086599999806, 5.452023499994539, 5.826172300003236]",425.6905766999989,425.6905766999989,425.6905766999989,1,2,2023-02-22_14h27.01.318,Memory and Syntax,2022.2.5,164.98301498931562,
lu neimo nim li,,0,2,2,0,0,2,2,0,brocanto/stims/to_use/sentence36.png,"['brocanto/stims/to_use/sentence31.png', 'brocanto/stims/to_use/sentence65.png', 'brocanto/stims/to_use/sentence63.png', 'brocanto/stims/to_use/sentence68.png', 'brocanto/stims/to_use/sentence39.png', 'brocanto/stims/to_use/sentence14.png', 'brocanto/stims/to_use/sentence105.png', 'brocanto/stims/to_use/sentence103.png', 'brocanto/stims/to_use/sentence17.png', 'brocanto/stims/to_use/sentence12.png', 'brocanto/stims/to_use/sentence29.png', 'brocanto/stims/to_use/sentence70.png', 'brocanto/stims/to_use/sentence107.png', 'brocanto/stims/to_use/sentence32.png', 'brocanto/stims/to_use/sentence26.png', 'brocanto/stims/to_use/sentence35.png', 'brocanto/stims/to_use/sentence79.png', 'brocanto/stims/to_use/sentence71.png', 'brocanto/stims/to_use/sentence75.png', 'brocanto/stims/to_use/sentence72.png', 'brocanto/stims/to_use/sentence53.png', 'brocanto/stims/to_use/sentence69.png', 'brocanto/stims/to_use/sentence104.png', 'brocanto/stims/to_use/sentence89.png', 'brocanto/stims/to_use/sentence102.png', 'brocanto/stims/to_use/sentence44.png', 'brocanto/stims/to_use/sentence34.png']",,,,,0,0,0,0,,,,,,,,,,,,,0,1,1,1,,,,,0,0,0,0,0,20,20,20,,,,,,,,,,,,,,,426.6955721999984,427.1896451000066,427.1896451000066,427.295557800011,lu neimo nim li,"[1.530359700002009, 0.20785109998541884, 1.7003455000231043, 0.54590729996562, 1.878366900025867, 0.6498714999761432, 2.062711800012039, 0.8176476999942679, 2.322638100013137, 1.7599309999786783, 2.4823320000141393, 1.9079881999932695, 2.616603700007545, 1.995547800004715, 2.7748378999822307, 2.2454615000169724]",427.295557800011,427.295557800011,427.295557800011,"['l', 'u', 'space', 'n', 'e', 'i', 'm', 'o', 'space', 'n', 'i', 'm', 'space', 'l', 'i', 'return']","[1.530359700002009, 1.738210799987428, 1.908196600008523, 2.2462527999887243, 2.424274199991487, 2.52823840000201, 2.7125832999881823, 2.880359500006307, 3.1402858000074048, 4.082569099991815, 4.242262999992818, 4.390320200007409, 4.524591900000814, 4.61215150001226, 4.770385699986946, 5.020299399999203]",432.3256729999848,432.3256729999848,432.3256729999848,1,2,2023-02-22_14h27.01.318,Memory and Syntax,2022.2.5,164.98301498931562,
yab lu vode lu neep,,0,2,2,0,0,2,2,0,brocanto/stims/to_use/sentence53.png,"['brocanto/stims/to_use/sentence31.png', 'brocanto/stims/to_use/sentence65.png', 'brocanto/stims/to_use/sentence63.png', 'brocanto/stims/to_use/sentence68.png', 'brocanto/stims/to_use/sentence39.png', 'brocanto/stims/to_use/sentence14.png', 'brocanto/stims/to_use/sentence105.png', 'brocanto/stims/to_use/sentence103.png', 'brocanto/stims/to_use/sentence17.png', 'brocanto/stims/to_use/sentence12.png', 'brocanto/stims/to_use/sentence29.png', 'brocanto/stims/to_use/sentence70.png', 'brocanto/stims/to_use/sentence107.png', 'brocanto/stims/to_use/sentence32.png', 'brocanto/stims/to_use/sentence26.png', 'brocanto/stims/to_use/sentence35.png', 'brocanto/stims/to_use/sentence79.png', 'brocanto/stims/to_use/sentence71.png', 'brocanto/stims/to_use/sentence75.png', 'brocanto/stims/to_use/sentence72.png', 'brocanto/stims/to_use/sentence36.png', 'brocanto/stims/to_use/sentence69.png', 'brocanto/stims/to_use/sentence104.png', 'brocanto/stims/to_use/sentence89.png', 'brocanto/stims/to_use/sentence102.png', 'brocanto/stims/to_use/sentence44.png', 'brocanto/stims/to_use/sentence34.png']",,,,,0,0,0,0,,,,,,,,,,,,,0,1,1,1,,,,,0,0,0,0,0,21,21,21,,,,,,,,,,,,,,,433.3412280000048,433.8379947000067,433.8379947000067,433.9508874999883,yab lu vode lu neep,"[1.861062399984803, 0.09582550000050105, 2.00511839997489, 0.3359358000161592, 2.528917499963427, 0.5800338000117335, 2.881008499971358, 0.699927600013325, 3.1370611999591347, 1.0319767000328284, 3.2649693999555893, 1.1760061000240967, 3.400929499970516, 1.3820307000132743, 3.592950699967332, 1.5341012000280898, 3.7728101999673527, 1.7361289000255056, 4.120873899955768, 1.9580787000304554, 4.3149732999445405, 3.056050600047456, 4.442947199946502, 3.2300003000418656, 4.548823999939486, 3.506313800055068]",433.9508874999883,433.9508874999883,433.9508874999883,"['y', 'a', 'b', 'space', 'l', 'u', 'space', 'v', 'o', 'd', 'e', 'backspace', 'backspace', 'backspace', 'space', 'v', 'o', 'd', 'e', 'space', 'l', 'u', 'space', 'n', 'e', 'e', 'p', 'return']","[1.861062399984803, 1.956887899985304, 2.100943899975391, 2.3410541999910492, 2.864853299979586, 3.1089512999751605, 3.2870552999957, 3.4610422999830917, 3.580936099984683, 3.663043899985496, 3.8369887999724597, 4.169037899991963, 4.296946099988418, 4.440975499979686, 4.576935599994613, 4.7829601999837905, 4.9749813999806065, 5.127051899995422, 5.3069113999954425, 5.508939099992858, 5.857002799981274, 6.0789525999862235, 6.273051999974996, 7.371023899991997, 7.498997799993958, 7.672947499988368, 7.778824299981352, 8.055137799994554]",442.0168912000081,442.0168912000081,442.0168912000081,1,2,2023-02-22_14h27.01.318,Memory and Syntax,2022.2.5,164.98301498931562,
lu blom praz li,,0,2,2,0,0,2,2,0,brocanto/stims/to_use/sentence69.png,"['brocanto/stims/to_use/sentence31.png', 'brocanto/stims/to_use/sentence65.png', 'brocanto/stims/to_use/sentence63.png', 'brocanto/stims/to_use/sentence68.png', 'brocanto/stims/to_use/sentence39.png', 'brocanto/stims/to_use/sentence14.png', 'brocanto/stims/to_use/sentence105.png', 'brocanto/stims/to_use/sentence103.png', 'brocanto/stims/to_use/sentence17.png', 'brocanto/stims/to_use/sentence12.png', 'brocanto/stims/to_use/sentence29.png', 'brocanto/stims/to_use/sentence70.png', 'brocanto/stims/to_use/sentence107.png', 'brocanto/stims/to_use/sentence32.png', 'brocanto/stims/to_use/sentence26.png', 'brocanto/stims/to_use/sentence35.png', 'brocanto/stims/to_use/sentence79.png', 'brocanto/stims/to_use/sentence71.png', 'brocanto/stims/to_use/sentence75.png', 'brocanto/stims/to_use/sentence72.png', 'brocanto/stims/to_use/sentence36.png', 'brocanto/stims/to_use/sentence53.png', 'brocanto/stims/to_use/sentence104.png', 'brocanto/stims/to_use/sentence89.png', 'brocanto/stims/to_use/sentence102.png', 'brocanto/stims/to_use/sentence44.png', 'brocanto/stims/to_use/sentence34.png']",,,,,0,0,0,0,,,,,,,,,,,,,0,1,1,1,,,,,0,0,0,0,0,22,22,22,,,,,,,,,,,,,,,443.0296632999962,443.5227002000029,443.5227002000029,443.63290239998605,lu blom praz li,"[1.5369527000002563, 0.24197599999024533, 1.7070324000087567, 0.4719013999856543, 2.559029099997133, 1.0619096999871545, 2.67108780000126, 1.2298316999804229, 2.8070423000026494, 1.3921971999807283, 5.1627957000164315, 1.5061257999623194, 5.398797600035323, 1.752133399946615, 5.552740800048923, 1.9481853999313898, 5.710916000069119, 2.24402049992932]",443.63290239998605,443.63290239998605,443.63290239998605,"['l', 'u', 'space', 'v', 'backspace', 'b', 'l', 'o', 'm', 'space', 'p', 'r', 'a', 'z', 'space', 'l', 'i', 'return']","[1.5369527000002563, 1.7789286999905016, 1.949008399999002, 2.178933799994411, 3.0309304999827873, 3.6209387999842875, 3.7329974999884143, 3.9009194999816827, 4.036873999983072, 4.199239499983378, 6.55499289999716, 6.668921499978751, 6.904923399997642, 7.150930999981938, 7.304874199995538, 7.500926199980313, 7.659101400000509, 7.954936499998439]",451.5981532000005,451.5981532000005,451.5981532000005,1,2,2023-02-22_14h27.01.318,Memory and Syntax,2022.2.5,164.98301498931562,
lu neep zayma li,,0,2,2,0,0,2,2,0,brocanto/stims/to_use/sentence104.png,"['brocanto/stims/to_use/sentence31.png', 'brocanto/stims/to_use/sentence65.png', 'brocanto/stims/to_use/sentence63.png', 'brocanto/stims/to_use/sentence68.png', 'brocanto/stims/to_use/sentence39.png', 'brocanto/stims/to_use/sentence14.png', 'brocanto/stims/to_use/sentence105.png', 'brocanto/stims/to_use/sentence103.png', 'brocanto/stims/to_use/sentence17.png', 'brocanto/stims/to_use/sentence12.png', 'brocanto/stims/to_use/sentence29.png', 'brocanto/stims/to_use/sentence70.png', 'brocanto/stims/to_use/sentence107.png', 'brocanto/stims/to_use/sentence32.png', 'brocanto/stims/to_use/sentence26.png', 'brocanto/stims/to_use/sentence35.png', 'brocanto/stims/to_use/sentence79.png', 'brocanto/stims/to_use/sentence71.png', 'brocanto/stims/to_use/sentence75.png', 'brocanto/stims/to_use/sentence72.png', 'brocanto/stims/to_use/sentence36.png', 'brocanto/stims/to_use/sentence53.png', 'brocanto/stims/to_use/sentence69.png', 'brocanto/stims/to_use/sentence89.png', 'brocanto/stims/to_use/sentence102.png', 'brocanto/stims/to_use/sentence44.png', 'brocanto/stims/to_use/sentence34.png']",,,,,0,0,0,0,,,,,,,,,,,,,0,1,1,1,,,,,0,0,0,0,0,23,23,23,,,,,,,,,,,,,,,452.6095032999874,453.1042460000026,453.1042460000026,453.2143827000109,lu neep zayma li,"[0.8854162000061478, 0.20600889998604544, 1.067346499999985, 0.8961148000089452, 1.8813072000048123, 1.082283700001426, 2.101167799992254, 1.2302954000188038, 6.681118499982404, 1.604432700027246, 7.377132299967343, 2.0843245000287425, 9.965168799972162, 2.290225200034911, 10.391211199952522, 2.4162702000467107, 12.81714639996062, 2.624599800037686, 12.92680149996886, 2.8665435000439174, 13.080882199952612, 2.906617900036508, 13.292871699959505, 3.092556300049182, 13.61687819994404]",453.2143827000109,453.2143827000109,453.2143827000109,"['l', 'u', 'space', 'n', 'e', 'e', 'p', 'space', 'p', 'backspace', 'n', 'backspace', 'y', 'a', 'backspace', 'backspace', 'z', 'a', 'y', 'm', 'a', 'space', 'l', 'i', 'return']","[0.8854162000061478, 1.0914250999921933, 1.2733553999860305, 1.9634613000089303, 2.7774220000137575, 2.9635909000062384, 3.18345149999368, 3.331463200011058, 7.911413900001207, 8.28555120000965, 8.981564999994589, 9.461456799996085, 12.049493300000904, 12.255394000007072, 12.681436399987433, 12.807481399999233, 15.233416600007331, 15.441746199998306, 15.551401300006546, 15.793345000012778, 15.94742569999653, 15.98750009998912, 16.199489599996014, 16.385428000008687, 16.709434499993222]",469.9380450999888,469.9380450999888,469.9380450999888,1,2,2023-02-22_14h27.01.318,Memory and Syntax,2022.2.5,164.98301498931562,
noyka lu vode lu neep,,0,2,2,0,0,2,2,0,brocanto/stims/to_use/sentence89.png,"['brocanto/stims/to_use/sentence31.png', 'brocanto/stims/to_use/sentence65.png', 'brocanto/stims/to_use/sentence63.png', 'brocanto/stims/to_use/sentence68.png', 'brocanto/stims/to_use/sentence39.png', 'brocanto/stims/to_use/sentence14.png', 'brocanto/stims/to_use/sentence105.png', 'brocanto/stims/to_use/sentence103.png', 'brocanto/stims/to_use/sentence17.png', 'brocanto/stims/to_use/sentence12.png', 'brocanto/stims/to_use/sentence29.png', 'brocanto/stims/to_use/sentence70.png', 'brocanto/stims/to_use/sentence107.png', 'brocanto/stims/to_use/sentence32.png', 'brocanto/stims/to_use/sentence26.png', 'brocanto/stims/to_use/sentence35.png', 'brocanto/stims/to_use/sentence79.png', 'brocanto/stims/to_use/sentence71.png', 'brocanto/stims/to_use/sentence75.png', 'brocanto/stims/to_use/sentence72.png', 'brocanto/stims/to_use/sentence36.png', 'brocanto/stims/to_use/sentence53.png', 'brocanto/stims/to_use/sentence69.png', 'brocanto/stims/to_use/sentence104.png', 'brocanto/stims/to_use/sentence102.png', 'brocanto/stims/to_use/sentence44.png', 'brocanto/stims/to_use/sentence34.png']",,,,,0,0,0,0,,,,,,,,,,,,,0,1,1,1,,,,,0,0,0,0,0,24,24,24,,,,,,,,,,,,,,,470.95834650000324,471.44929859999684,471.44929859999684,471.56665809999686,noyka lu vode lu neep,"[3.177142599975923, 0.3340926000091713, 4.165073099982692, 0.524081900017336, 4.305320499959635, 0.6658246000297368, 4.439332599955378, 0.7838381000328809, 4.807331699965289, 1.1159052000148222, 4.9912412999838125, 1.7259147000149824, 5.107224999985192, 1.8158560000010766, 5.2872554999776185, 1.8840558000083547, 5.811158499971498, 2.103999600018142, 6.053115099959541, 2.960029600042617, 6.413233399944147, 3.093933600030141, 6.539200999948662, 3.3939224000496324]",471.56665809999686,471.56665809999686,471.56665809999686,"['l', 'backspace', 'n', 'o', 'y', 'k', 'a', 'space', 'l', 'u', 'space', 'v', 'o', 'd', 'e', 'space', 'l', 'u', 'space', 'n', 'e', 'e', 'p', 'return']","[3.177142599975923, 3.5112351999850944, 4.499165699991863, 4.689155000000028, 4.829402399976971, 4.971145099989371, 5.105157199985115, 5.223170699988259, 5.59116979999817, 5.923236899980111, 6.107146499998635, 6.717155999998795, 6.833139700000174, 6.923080999986269, 7.103111499978695, 7.171311299985973, 7.6952142999798525, 7.91515809998964, 8.157114699977683, 9.013144700002158, 9.373262999986764, 9.507166999974288, 9.633134599978803, 9.933123399998294]",481.5130320999888,481.5130320999888,481.5130320999888,1,2,2023-02-22_14h27.01.318,Memory and Syntax,2022.2.5,164.98301498931562,
noyka lu neimo lu troise,,0,2,2,0,0,2,2,0,brocanto/stims/to_use/sentence102.png,"['brocanto/stims/to_use/sentence31.png', 'brocanto/stims/to_use/sentence65.png', 'brocanto/stims/to_use/sentence63.png', 'brocanto/stims/to_use/sentence68.png', 'brocanto/stims/to_use/sentence39.png', 'brocanto/stims/to_use/sentence14.png', 'brocanto/stims/to_use/sentence105.png', 'brocanto/stims/to_use/sentence103.png', 'brocanto/stims/to_use/sentence17.png', 'brocanto/stims/to_use/sentence12.png', 'brocanto/stims/to_use/sentence29.png', 'brocanto/stims/to_use/sentence70.png', 'brocanto/stims/to_use/sentence107.png', 'brocanto/stims/to_use/sentence32.png', 'brocanto/stims/to_use/sentence26.png', 'brocanto/stims/to_use/sentence35.png', 'brocanto/stims/to_use/sentence79.png', 'brocanto/stims/to_use/sentence71.png', 'brocanto/stims/to_use/sentence75.png', 'brocanto/stims/to_use/sentence72.png', 'brocanto/stims/to_use/sentence36.png', 'brocanto/stims/to_use/sentence53.png', 'brocanto/stims/to_use/sentence69.png', 'brocanto/stims/to_use/sentence104.png', 'brocanto/stims/to_use/sentence89.png', 'brocanto/stims/to_use/sentence44.png', 'brocanto/stims/to_use/sentence34.png']",,,,,0,0,0,0,,,,,,,,,,,,,0,1,1,1,,,,,0,0,0,0,0,25,25,25,,,,,,,,,,,,,,,482.5360237999994,483.03081180001027,483.03081180001027,483.1507855000091,noyka lu neimo lu troise,"[2.509121999988565, 0.19990090001374483, 2.9872218999662437, 0.3240428000281099, 3.349039799970342, 0.526267800014466, 3.564744899980724, 0.7463796000229195, 3.736592599976575, 0.8543946999998298, 4.302630799997132, 1.0805298000050243, 4.504416099982336, 2.876599900017027, 4.632417099986924, 2.9706462000031024, 4.646336199977668, 3.114633600023808, 4.980373599973973, 3.2306581000157166, 5.244550799980061, 3.4363639000221156, 5.496642399957636, 3.9203788000450004, 5.72274429994286, 4.112262700044084, 6.582739799952833, 4.192251300031785, 6.670805399946403, 4.406198800046695, 6.82478619995527, 4.818286200024886, 6.958835299970815, 4.960140000010142, 7.096908399980748, 5.124075800005812, 7.324911099974997, 5.298133700009203, 7.466936999990139, 5.4760411999886855, 7.534955300012371, 5.622061399975792, 7.931090200028848]",483.1507855000091,483.1507855000091,483.1507855000091,"['z', 'o', 'backspace', 'backspace', 'n', 'o', 'y', 'k', 'a', 'space', 'l', 'u', 'space', 'n', 'e', 'i', 'o', 'm', 'backspace', 'backspace', 'm', 'o', 'space', 'l', 'u', 'space', 'p', 'l', 'e', 'c', 'k', 'backspace', 'backspace', 'backspace', 'backspace', 'backspace', 't', 'r', 'o', 'i', 's', 'e', 'return']","[2.509121999988565, 2.70902290000231, 3.1871227999799885, 3.3112646999943536, 3.6730825999984518, 3.875307599984808, 4.09101269999519, 4.311124500003643, 4.4829721999994945, 4.590987299976405, 5.157025499996962, 5.383160600002157, 5.5849458999873605, 7.381015999999363, 7.509017000003951, 7.603063299990026, 7.61698239998077, 7.760969800001476, 8.09500719999778, 8.21103169998969, 8.475208899995778, 8.680914700002177, 8.933006299979752, 9.417021200002637, 9.64312309998786, 9.835006999986945, 10.695002499996917, 10.774991099984618, 10.863056699978188, 11.077004199993098, 11.230985000001965, 11.643072399980156, 11.777121499995701, 11.918975299980957, 12.05704839999089, 12.22098419998656, 12.44898689998081, 12.6230447999842, 12.765070699999342, 12.942978199978825, 13.010996500001056, 13.157016699988162, 13.55315160000464]",496.71875400000135,496.71875400000135,496.71875400000135,1,2,2023-02-22_14h27.01.318,Memory and Syntax,2022.2.5,164.98301498931562,
yab lu neep lu vode,,0,2,2,0,0,2,2,0,brocanto/stims/to_use/sentence44.png,"['brocanto/stims/to_use/sentence31.png', 'brocanto/stims/to_use/sentence65.png', 'brocanto/stims/to_use/sentence63.png', 'brocanto/stims/to_use/sentence68.png', 'brocanto/stims/to_use/sentence39.png', 'brocanto/stims/to_use/sentence14.png', 'brocanto/stims/to_use/sentence105.png', 'brocanto/stims/to_use/sentence103.png', 'brocanto/stims/to_use/sentence17.png', 'brocanto/stims/to_use/sentence12.png', 'brocanto/stims/to_use/sentence29.png', 'brocanto/stims/to_use/sentence70.png', 'brocanto/stims/to_use/sentence107.png', 'brocanto/stims/to_use/sentence32.png', 'brocanto/stims/to_use/sentence26.png', 'brocanto/stims/to_use/sentence35.png', 'brocanto/stims/to_use/sentence79.png', 'brocanto/stims/to_use/sentence71.png', 'brocanto/stims/to_use/sentence75.png', 'brocanto/stims/to_use/sentence72.png', 'brocanto/stims/to_use/sentence36.png', 'brocanto/stims/to_use/sentence53.png', 'brocanto/stims/to_use/sentence69.png', 'brocanto/stims/to_use/sentence104.png', 'brocanto/stims/to_use/sentence89.png', 'brocanto/stims/to_use/sentence102.png', 'brocanto/stims/to_use/sentence34.png']",,,,,0,0,0,0,,,,,,,,,,,,,0,1,1,1,,,,,0,0,0,0,0,26,26,26,,,,,,,,,,,,,,,497.740054599999,498.23055449998355,498.23055449998355,498.3497822000063,yab lu neep lu vode,"[2.75199329998577, 0.12393750000046566, 2.846140200010268, 0.313859699992463, 3.2900974999938626, 0.6240846000146121, 3.7219501999788918, 5.174057800031733, 3.8379277999629267, 5.347984800027916, 3.927952199970605, 5.486341900017578, 4.507663199969102, 5.722295400017174, 4.677759199985303, 6.24664280001889, 4.803298299986636, 6.3246613000228535, 4.987468399980571, 6.746532900026068]",498.3497822000063,498.3497822000063,498.3497822000063,"['y', 'a', 'b', 'space', 'l', 'u', 'space', 'n', 'e', 'e', 'p', 'space', 'l', 'u', 'space', 'v', 'o', 'd', 'e', 'return']","[2.75199329998577, 2.875930799986236, 2.9700777000107337, 3.159999900002731, 3.6039571999863256, 3.9141821000084747, 4.346034799993504, 8.896008000010625, 9.01198559999466, 9.185912599990843, 9.275936999998521, 9.414294099988183, 9.99400509998668, 10.229958599986276, 10.400054600002477, 10.924402000004193, 11.049941100005526, 11.12795960000949, 11.312129700003425, 11.73400130000664]",510.0948398000037,510.0948398000037,510.0948398000037,1,2,2023-02-22_14h27.01.318,Memory and Syntax,2022.2.5,164.98301498931562,
lu vode nim li,,0,2,2,0,0,2,2,0,brocanto/stims/to_use/sentence34.png,"['brocanto/stims/to_use/sentence31.png', 'brocanto/stims/to_use/sentence65.png', 'brocanto/stims/to_use/sentence63.png', 'brocanto/stims/to_use/sentence68.png', 'brocanto/stims/to_use/sentence39.png', 'brocanto/stims/to_use/sentence14.png', 'brocanto/stims/to_use/sentence105.png', 'brocanto/stims/to_use/sentence103.png', 'brocanto/stims/to_use/sentence17.png', 'brocanto/stims/to_use/sentence12.png', 'brocanto/stims/to_use/sentence29.png', 'brocanto/stims/to_use/sentence70.png', 'brocanto/stims/to_use/sentence107.png', 'brocanto/stims/to_use/sentence32.png', 'brocanto/stims/to_use/sentence26.png', 'brocanto/stims/to_use/sentence35.png', 'brocanto/stims/to_use/sentence79.png', 'brocanto/stims/to_use/sentence71.png', 'brocanto/stims/to_use/sentence75.png', 'brocanto/stims/to_use/sentence72.png', 'brocanto/stims/to_use/sentence36.png', 'brocanto/stims/to_use/sentence53.png', 'brocanto/stims/to_use/sentence69.png', 'brocanto/stims/to_use/sentence104.png', 'brocanto/stims/to_use/sentence89.png', 'brocanto/stims/to_use/sentence102.png', 'brocanto/stims/to_use/sentence44.png']",,,,,0,0,0,0,,,,,,,,,,,,,0,1,1,1,,,,,0,0,0,0,0,27,27,27,,,,,,,,,,,,,,,511.1039313999936,511.59983459999785,511.59983459999785,511.7057566999865,lu vode nim li,"[0.8703113000083249, 0.3236804000043776, 1.0303342000115663, 2.121760699985316, 1.1322165000310633, 2.223886399966432, 1.3201935000251979, 2.341902399988612, 2.372109400021145, 2.4878994999744464, 2.5282198000350036, 2.6117528999748174, 2.6202057000191417, 2.777828699996462, 2.8624914000101853]",511.7057566999865,511.7057566999865,511.7057566999865,"['l', 'u', 'space', 'v', 'o', 'd', 'e', 'space', 'n', 'i', 'm', 'space', 'l', 'i', 'return']","[0.8703113000083249, 1.1939917000127025, 1.3540146000159439, 3.1520948999968823, 3.2539772000163794, 3.356102899997495, 3.5440798999916296, 3.66209590001381, 4.714011800009757, 4.8600088999955915, 5.01611930000945, 5.139972700009821, 5.231958599993959, 5.398034400015604, 5.640320100006647]",517.3605199999874,517.3605199999874,517.3605199999874,1,2,2023-02-22_14h27.01.318,Memory and Syntax,2022.2.5,164.98301498931562,
,,,,,,,,,,,,,,,,,,,,,,,,,,,,,,,,,,,,,,,,,,,,,,,,,,,,,,,,,,,,518.3573661999835,518.3573661999835,519.9669023999886,520.4601948999916,520.4601948999916,520.5648864000104,Type response now,[],520.5648864000104,520.5648864000104,520.5648864000104,,,,,,,,,,,,
