word,img,sentence,Session1.thisRepN,Session1.thisTrialN,Session1.thisN,Session1.thisIndex,Session2.thisRepN,Session2.thisTrialN,Session2.thisN,Session2.thisIndex,S2_engAJT_block.thisRepN,S2_engAJT_block.thisTrialN,S2_engAJT_block.thisN,S2_engAJT_block.thisIndex,S2_vocabPhase.thisRepN,S2_vocabPhase.thisTrialN,S2_vocabPhase.thisN,S2_vocabPhase.thisIndex,S2_vocabRep.thisRepN,S2_vocabRep.thisTrialN,S2_vocabRep.thisN,S2_vocabRep.thisIndex,S2_vocabLearnTrials.thisRepN,S2_vocabLearnTrials.thisTrialN,S2_vocabLearnTrials.thisN,S2_vocabLearnTrials.thisIndex,S2_vocabTestTrials.thisRepN,S2_vocabTestTrials.thisTrialN,S2_vocabTestTrials.thisN,S2_vocabTestTrials.thisIndex,too_fast_punish.thisRepN,too_fast_punish.thisTrialN,too_fast_punish.thisN,too_fast_punish.thisIndex,S2_sentLearnTrials.thisRepN,S2_sentLearnTrials.thisTrialN,S2_sentLearnTrials.thisN,S2_sentLearnTrials.thisIndex,S2_sentPraxPhase.thisRepN,S2_sentPraxPhase.thisTrialN,S2_sentPraxPhase.thisN,S2_sentPraxPhase.thisIndex,s2_sentPrax_C,s2_sentPrax_P,s4_sentPrax_C,s4_sentPrax_P,s5_sentPrax_C,s5_sentPrax_P,s6_sentPrax_C,s6_sentPrax_P,S2_sentPraxC_block.thisRepN,S2_sentPraxC_block.thisTrialN,S2_sentPraxC_block.thisN,S2_sentPraxC_block.thisIndex,S2_sentPraxP_block.thisRepN,S2_sentPraxP_block.thisTrialN,S2_sentPraxP_block.thisN,S2_sentPraxP_block.thisIndex,S2_sentPraxP_trials.thisRepN,S2_sentPraxP_trials.thisTrialN,S2_sentPraxP_trials.thisN,S2_sentPraxP_trials.thisIndex,target,foils,brocanto_story.started,start_brocanto.started,vocab_learn_begin.started,vocab_text.started,key_resp.started,vocab_image.started,S2_vrepeat.started,S2_vrepeat_key_resp.started,S2_vrepeat_key_resp.keys,S2_vrepeat_key_resp.rt,vtest_instr_text.started,vtest_begin.started,answerbox.started,S2_vocabTest_resp,S2_vocabTest_rts,S2_vtest_key_resp.started,S2_vtest_text.started,S2_vtest_img.started,S2_vtest_key_resp.keys,S2_vtest_key_resp.rt,S2_vtest_fb.started,S2_vtest_fb.stopped,S2_vtest_eval.started,S2_v_phase_end.started,S2_v_phase_end.keys,S2_v_phase_end.rt,sent_learn_instr_text.started,sent_learn_begin.started,sent_learn_img.started,sent_text.started,sent_prax_instr_text.started,sent_prax_begin.started,sentPrax_P_instr_text.started,sentPrax_P_begin.started,blankITI_2.started,sent_Prax_P_img.started,sent_Prax_P_img.stopped,blankITI_2.stopped,S2_sentPrax_P_key_resp.started,S2_sentPraxP_resp,S2_sentPraxP_rts,sent_Prax_P_img_3.started,sent_Prax_P_text.started,participant,session,date,expName,psychopyVersion,frameRate,
lu neimo,brocanto/stims/to_use/pilot3.jpg,,,,,,0,0,0,0,,,,,0,0,0,0,0,0,0,0,0,0,0,5,,,,,,,,,,,,,,,,,,,,,,,,,,,,,,,,,,,,,,,8.9234182999935,8.9234182999935,10.06329530000221,10.993966100009857,10.993966100009857,10.993966100009857,,,,,,,,,,,,,,,,,,,,,,,,,,,,,,,,,,,,,,1,2,2023-02-22_13h42.29.510,Memory and Syntax,2022.2.5,164.92125009861752,
lu neep,brocanto/stims/to_use/doctor2.png,,,,,,0,0,0,0,,,,,0,0,0,0,0,0,0,0,0,1,1,1,,,,,,,,,,,,,,,,,,,,,,,,,,,,,,,,,,,,,,,,,,12.023861900001066,12.023861900001066,12.023861900001066,,,,,,,,,,,,,,,,,,,,,,,,,,,,,,,,,,,,,,1,2,2023-02-22_13h42.29.510,Memory and Syntax,2022.2.5,164.92125009861752,
lu blom,brocanto/stims/to_use/firefighter3.jpg,,,,,,0,0,0,0,,,,,0,0,0,0,0,0,0,0,0,2,2,2,,,,,,,,,,,,,,,,,,,,,,,,,,,,,,,,,,,,,,,,,,12.202603499987163,12.202603499987163,12.202603499987163,,,,,,,,,,,,,,,,,,,,,,,,,,,,,,,,,,,,,,1,2,2023-02-22_13h42.29.510,Memory and Syntax,2022.2.5,164.92125009861752,
lu vode,brocanto/stims/to_use/chef1.jpg,,,,,,0,0,0,0,,,,,0,0,0,0,0,0,0,0,0,3,3,3,,,,,,,,,,,,,,,,,,,,,,,,,,,,,,,,,,,,,,,,,,12.362894599995343,12.362894599995343,12.362894599995343,,,,,,,,,,,,,,,,,,,,,,,,,,,,,,,,,,,,,,1,2,2023-02-22_13h42.29.510,Memory and Syntax,2022.2.5,164.92125009861752,
lu pleck,brocanto/stims/to_use/mechanic1.jpg,,,,,,0,0,0,0,,,,,0,0,0,0,0,0,0,0,0,4,4,0,,,,,,,,,,,,,,,,,,,,,,,,,,,,,,,,,,,,,,,,,,12.538243999995757,12.538243999995757,12.538243999995757,,,,,,,,,,,,,,,,,,,,,,,,,,,,,,,,,,,,,,1,2,2023-02-22_13h42.29.510,Memory and Syntax,2022.2.5,164.92125009861752,
lu troise,brocanto/stims/to_use/janitor2.jpg,,,,,,0,0,0,0,,,,,0,0,0,0,0,0,0,0,0,5,5,4,,,,,,,,,,,,,,,,,,,,,,,,,,,,,,,,,,,,,,,,,,12.695352000009734,12.695352000009734,12.695352000009734,,,,,,,,,,,,,,,,,,,,,,,,,,,,,,,,,,,,,,1,2,2023-02-22_13h42.29.510,Memory and Syntax,2022.2.5,164.92125009861752,
lu neimo,brocanto/stims/to_use/pilot3.jpg,,,,,,0,0,0,0,,,,,0,0,0,0,0,0,0,0,1,0,6,5,,,,,,,,,,,,,,,,,,,,,,,,,,,,,,,,,,,,,,,,,,12.871673599991482,12.871673599991482,12.871673599991482,,,,,,,,,,,,,,,,,,,,,,,,,,,,,,,,,,,,,,1,2,2023-02-22_13h42.29.510,Memory and Syntax,2022.2.5,164.92125009861752,
lu pleck,brocanto/stims/to_use/mechanic1.jpg,,,,,,0,0,0,0,,,,,0,0,0,0,0,0,0,0,1,1,7,0,,,,,,,,,,,,,,,,,,,,,,,,,,,,,,,,,,,,,,,,,,13.05274409998674,13.05274409998674,13.05274409998674,,,,,,,,,,,,,,,,,,,,,,,,,,,,,,,,,,,,,,1,2,2023-02-22_13h42.29.510,Memory and Syntax,2022.2.5,164.92125009861752,
lu troise,brocanto/stims/to_use/janitor2.jpg,,,,,,0,0,0,0,,,,,0,0,0,0,0,0,0,0,1,2,8,4,,,,,,,,,,,,,,,,,,,,,,,,,,,,,,,,,,,,,,,,,,13.228886900004,13.228886900004,13.228886900004,,,,,,,,,,,,,,,,,,,,,,,,,,,,,,,,,,,,,,1,2,2023-02-22_13h42.29.510,Memory and Syntax,2022.2.5,164.92125009861752,
lu vode,brocanto/stims/to_use/chef1.jpg,,,,,,0,0,0,0,,,,,0,0,0,0,0,0,0,0,1,3,9,3,,,,,,,,,,,,,,,,,,,,,,,,,,,,,,,,,,,,,,,,,,13.561681999999564,13.561681999999564,13.561681999999564,,,,,,,,,,,,,,,,,,,,,,,,,,,,,,,,,,,,,,1,2,2023-02-22_13h42.29.510,Memory and Syntax,2022.2.5,164.92125009861752,
lu blom,brocanto/stims/to_use/firefighter3.jpg,,,,,,0,0,0,0,,,,,0,0,0,0,0,0,0,0,1,4,10,2,,,,,,,,,,,,,,,,,,,,,,,,,,,,,,,,,,,,,,,,,,13.901099500013515,13.901099500013515,13.901099500013515,,,,,,,,,,,,,,,,,,,,,,,,,,,,,,,,,,,,,,1,2,2023-02-22_13h42.29.510,Memory and Syntax,2022.2.5,164.92125009861752,
lu neep,brocanto/stims/to_use/doctor2.png,,,,,,0,0,0,0,,,,,0,0,0,0,0,0,0,0,1,5,11,1,,,,,,,,,,,,,,,,,,,,,,,,,,,,,,,,,,,,,,,,,,14.245261100004427,14.245261100004427,14.245261100004427,,,,,,,,,,,,,,,,,,,,,,,,,,,,,,,,,,,,,,1,2,2023-02-22_13h42.29.510,Memory and Syntax,2022.2.5,164.92125009861752,
lu pleck,brocanto/stims/to_use/mechanic1.jpg,,,,,,0,0,0,0,,,,,0,0,0,0,,,,,,,,,0,0,0,0,,,,,,,,,,,,,,,,,,,,,,,,,,,,,,,,,,,,,,,,,14.633136599994032,14.633136599994032,t,1.72851260000607,16.37258190001012,16.37258190001012,16.402103700005682,lu pleck,"[0.8115758000058122, 0.3039316000067629, 1.0135619000066072, 1.5599698000005446, 1.0735658000048716, 1.70594909999636, 1.2395508000045083, 1.7980002000113018, 1.6295243999920785]",16.402103700005682,16.402103700005682,16.402103700005682,"['l', 'u', 'space', 'p', 'l', 'e', 'c', 'k', 'return']","[0.8115758000058122, 1.115507400012575, 1.31749350001337, 2.573531700007152, 2.633535600005416, 2.7795149000012316, 2.9454999000008684, 3.03755100001581, 3.4275246000033803]",19.841321999992942,,,,,,,,,,,,,,,,,,,,,,,1,2,2023-02-22_13h42.29.510,Memory and Syntax,2022.2.5,164.92125009861752,
lu neep,brocanto/stims/to_use/doctor2.png,,,,,,0,0,0,0,,,,,0,0,0,0,,,,,,,,,0,1,1,1,,,,,,,,,,,,,,,,,,,,,,,,,,,,,,,,,,,,,,,,,,,,,,,20.85255519999191,lu neep,"[0.6233125999860931, 0.20782250000047497, 0.7433492999989539, 0.31764409999595955, 0.8773748000094201, 0.4617998999892734, 0.9651542000065092, 0.7559951999865007]",20.85255519999191,20.85255519999191,20.85255519999191,"['l', 'u', 'space', 'n', 'e', 'e', 'p', 'return']","[0.6233125999860931, 0.8311350999865681, 0.9511717999994289, 1.0609933999949135, 1.1950189000053797, 1.3391746999986935, 1.4269540999957826, 1.7211493999930099]",22.584457799996017,23.592706199997338,,,,,,,,,,,,,,,,,,,,,,1,2,2023-02-22_13h42.29.510,Memory and Syntax,2022.2.5,164.92125009861752,
lu blom,brocanto/stims/to_use/firefighter3.jpg,,,,,,0,0,0,0,,,,,0,0,0,0,,,,,,,,,0,2,2,2,,,,,,,,,,,,,,,,,,,,,,,,,,,,,,,,,,,,,,,,,,,,,,,23.592706199997338,lu blom,"[0.4389000999799464, 0.19403990000137128, 0.5228498999786098, 0.40823150001233444, 0.6666481999855023, 0.614210900006583, 1.028727099968819, 0.8462186000251677]",23.592706199997338,23.592706199997338,23.592706199997338,"['l', 'u', 'space', 'b', 'l', 'o', 'm', 'return']","[0.4389000999799464, 0.6329399999813177, 0.716889799979981, 0.9310813999909442, 1.0748796999978367, 1.2808590999920852, 1.642937999975402, 1.8749456999939866]",25.475258899998153,26.482716500002425,,,,,,,,,,,,,,,,,,,,,,1,2,2023-02-22_13h42.29.510,Memory and Syntax,2022.2.5,164.92125009861752,
lu vode,brocanto/stims/to_use/chef1.jpg,,,,,,0,0,0,0,,,,,0,0,0,0,,,,,,,,,0,3,3,3,,,,,,,,,,,,,,,,,,,,,,,,,,,,,,,,,,,,,,,,,,,,,,,26.482716500002425,lu vode,"[0.5749949000019114, 0.21593469998333603, 0.8950531000155024, 0.951872799982084, 1.0670218000013847, 1.0318100999866147, 1.2530631000117864, 1.2998114999791142]",26.482716500002425,26.482716500002425,26.482716500002425,"['l', 'u', 'space', 'v', 'o', 'd', 'e', 'return']","[0.5749949000019114, 0.7909295999852475, 1.1109877999988385, 1.8469258999975864, 2.0188945999834687, 2.0988318999879993, 2.284873199998401, 2.5528745999909006]",29.04501070000697,30.052354699990246,,,,,,,,,,,,,,,,,,,,,,1,2,2023-02-22_13h42.29.510,Memory and Syntax,2022.2.5,164.92125009861752,
lu troise,brocanto/stims/to_use/janitor2.jpg,,,,,,0,0,0,0,,,,,0,0,0,0,,,,,,,,,0,4,4,4,,,,,,,,,,,,,,,,,,,,,,,,,,,,,,,,,,,,,,,,,,,,,,,30.052354699990246,lu troise,"[0.4815072999917902, 0.20576800001435913, 0.6055834999715444, 0.3816899000375997, 0.7636478999629617, 0.47951100004138425, 0.9177851999411359, 0.5454919000621885, 1.0277861999347806, 0.7694933000602759]",30.052354699990246,30.052354699990246,30.052354699990246,"['l', 'u', 'space', 't', 'r', 'o', 'i', 's', 'e', 'return']","[0.4815072999917902, 0.6872753000061493, 0.8113514999859035, 0.9872734000091441, 1.1453378000005614, 1.243158900004346, 1.3972961999825202, 1.4632771000033244, 1.573278099996969, 1.7972794999950565]",31.856959800003096,32.86306860001059,,,,,,,,,,,,,,,,,,,,,,1,2,2023-02-22_13h42.29.510,Memory and Syntax,2022.2.5,164.92125009861752,
lu neimo,brocanto/stims/to_use/pilot3.jpg,,,,,,0,0,0,0,,,,,0,0,0,0,,,,,,,,,0,5,5,5,,,,,,,,,,,,,,,,,,,,,,,,,,,,,,,,,,,,,,,,,,,,,,,32.86306860001059,lu neimo,"[0.3646959000034258, 0.17995479999808595, 0.5325640999944881, 0.2679366000229493, 0.6445981999859214, 0.35799020002014004, 0.7885481999837793, 0.5419616000144742, 0.9966559000022244]",32.86306860001059,32.86306860001059,32.86306860001059,"['l', 'u', 'space', 'n', 'e', 'i', 'm', 'o', 'return']","[0.3646959000034258, 0.5446507000015117, 0.712518899992574, 0.8005007000174373, 0.9125348000088707, 1.0025884000060614, 1.1465384000039194, 1.3305097999982536, 1.5386175000166986]",34.40841609999188,35.41530870000133,,,,,,,,,,,,,,,,,,,,,,1,2,2023-02-22_13h42.29.510,Memory and Syntax,2022.2.5,164.92125009861752,
lu pleck,brocanto/stims/to_use/mechanic1.jpg,,,,,,0,0,0,0,,,,,0,0,0,0,,,,,,,,,1,0,6,0,,,,,,,,,,,,,,,,,,,,,,,,,,,,,,,,,,,,,,,,,,,,,,,35.41530870000133,lu pleck,"[0.8382959000009578, 0.17008599999826401, 1.0722633000114001, 0.22206460000597872, 1.1485943000006955, 0.40366280000307597, 1.430633600015426, 0.5337469000078272, 1.730671600002097, 0.673628100019414, 2.0266739999933634, 0.7896372000104748, 2.18267310000374, 1.2896028000104707, 2.418718400003854, 1.4315549000166357, 2.612707899999805, 1.5456757000065409, 3.1006578000087757]",35.41530870000133,35.41530870000133,35.41530870000133,"['l', 'u', 'space', 'p', 'l', 'e', 'c', 'backspace', 'backspace', 'backspace', 'backspace', 'space', 'backspace', 'backspace', 'space', 'p', 'l', 'e', 'c', 'k', 'return']","[0.8382959000009578, 1.0083818999992218, 1.1203784000244923, 1.2423493000096641, 1.2943279000173789, 1.3706589000066742, 1.5522571000037715, 1.834296400018502, 1.9643805000232533, 2.1024734000093304, 2.264418500009924, 2.404299700021511, 2.7003021000127774, 2.816311200003838, 2.9723103000142146, 3.4722759000142105, 3.708321200014325, 3.85027330002049, 4.0442628000164405, 4.158383600006346, 4.6463335000153165]",40.068983100005426,41.07571890001418,,,,,,,,,,,,,,,,,,,,,,1,2,2023-02-22_13h42.29.510,Memory and Syntax,2022.2.5,164.92125009861752,
lu neep,brocanto/stims/to_use/doctor2.png,,,,,,0,0,0,0,,,,,0,0,0,0,,,,,,,,,1,1,7,1,,,,,,,,,,,,,,,,,,,,,,,,,,,,,,,,,,,,,,,,,,,,,,,41.07571890001418,lu neep,"[0.7618808000115678, 0.16802529999404214, 0.8878288000123575, 0.29427459998987615, 0.9855817000207026, 0.436277099972358, 1.055581800028449, 0.6323116999701597]",41.07571890001418,41.07571890001418,41.07571890001418,"['l', 'u', 'space', 'n', 'e', 'e', 'p', 'return']","[0.7618808000115678, 0.9299061000056099, 1.0558541000063997, 1.1821034000022337, 1.2798563000105787, 1.4218587999930605, 1.491858900000807, 1.6878934999986086]",42.771872300014365,43.77857789999689,,,,,,,,,,,,,,,,,,,,,,1,2,2023-02-22_13h42.29.510,Memory and Syntax,2022.2.5,164.92125009861752,
lu blom,brocanto/stims/to_use/firefighter3.jpg,,,,,,0,0,0,0,,,,,0,0,0,0,,,,,,,,,1,2,8,2,,,,,,,,,,,,,,,,,,,,,,,,,,,,,,,,,,,,,,,,,,,,,,,43.77857789999689,lu blom,"[0.45904019998852164, 0.1739839000219945, 0.5670536999823526, 0.3520659000205342, 0.6230041999660898, 0.5283168000460137, 0.7526630999636836, 0.7323975000472274]",43.77857789999689,43.77857789999689,43.77857789999689,"['l', 'u', 'space', 'b', 'l', 'o', 'm', 'return']","[0.45904019998852164, 0.6330241000105161, 0.741037600004347, 0.9191196000028867, 0.975070099986624, 1.1513210000121035, 1.2809799000096973, 1.485060600010911]",45.274835799995344,46.28209130000323,,,,,,,,,,,,,,,,,,,,,,1,2,2023-02-22_13h42.29.510,Memory and Syntax,2022.2.5,164.92125009861752,
lu vode,brocanto/stims/to_use/chef1.jpg,,,,,,0,0,0,0,,,,,0,0,0,0,,,,,,,,,1,3,9,3,,,,,,,,,,,,,,,,,,,,,,,,,,,,,,,,,,,,,,,,,,,,,,,46.28209130000323,lu vode,"[0.6175804999948014, 0.1919511000160128, 0.7236044000019319, 0.360034600016661, 0.8698164999950677, 0.4297558999969624, 1.0257050000072923, 0.5778213999874424]",46.28209130000323,46.28209130000323,46.28209130000323,"['l', 'u', 'space', 'v', 'o', 'd', 'e', 'return']","[0.6175804999948014, 0.8095316000108141, 0.9155555000179447, 1.083639000018593, 1.2298511000117287, 1.2995723999920301, 1.4554609000042547, 1.6035263999947347]",47.89296950001153,48.90203540000948,,,,,,,,,,,,,,,,,,,,,,1,2,2023-02-22_13h42.29.510,Memory and Syntax,2022.2.5,164.92125009861752,
lu troise,brocanto/stims/to_use/janitor2.jpg,,,,,,0,0,0,0,,,,,0,0,0,0,,,,,,,,,1,4,10,4,,,,,,,,,,,,,,,,,,,,,,,,,,,,,,,,,,,,,,,,,,,,,,,48.90203540000948,lu troise,"[0.643546300008893, 0.31202009998378344, 0.8835529000207316, 0.5279021999740507, 1.0095943000342231, 0.7522898999741301, 1.1853857000241987, 0.8260136999888346, 1.3156174000177998, 0.8440256999747362, 1.4416500000224914, 1.0259387999831233]",48.90203540000948,48.90203540000948,48.90203540000948,"['u', 'backspace', 'l', 'u', 'space', 't', 'r', 'o', 'i', 's', 'e', 'return']","[0.643546300008893, 0.9555663999926765, 1.195573000004515, 1.4114550999947824, 1.5374965000082739, 1.7618842000083532, 1.9376755999983288, 2.0113994000130333, 2.1416311000066344, 2.159643099992536, 2.2856756999972276, 2.4675888000056148]",51.37771810000413,52.383863299997756,,,,,,,,,,,,,,,,,,,,,,1,2,2023-02-22_13h42.29.510,Memory and Syntax,2022.2.5,164.92125009861752,
lu neimo,brocanto/stims/to_use/pilot3.jpg,,,,,,0,0,0,0,,,,,0,0,0,0,,,,,,,,,1,5,11,5,,,,,,,,,,,,,,,,,,,,,,,,,,,,,,,,,,,,,,,,,,,,,,,52.383863299997756,lu neimo,"[0.3716705999977421, 0.18198490000213496, 0.49186929999268614, 0.35385660000611097, 0.5858901999890804, 0.4456744000199251, 0.712163199990755, 0.6135605000017677, 0.8922065999940969]",52.383863299997756,52.383863299997756,52.383863299997756,"['l', 'u', 'space', 'n', 'e', 'i', 'm', 'o', 'return']","[0.3716705999977421, 0.5536554999998771, 0.6738541999948211, 0.8457258999987971, 0.9397467999951914, 1.0315646000090055, 1.15783760001068, 1.3257236999925226, 1.5057670999958646]",53.89884609999717,54.90192420000676,,,,,,,,,,,,,,,,,,,,,,1,2,2023-02-22_13h42.29.510,Memory and Syntax,2022.2.5,164.92125009861752,
,,,,,,,0,0,0,0,,,,,0,0,0,0,,,,,,,,,,,,,,,,,,,,,,,,,,,,,,,,,,,,,,,,,,,,,,,,,,,,,,,,,,,,,,,,,,,,,54.90192420000676,54.90192420000676,f,0.9177621999988332,,,,,,,,,,,,,,,,,,1,2,2023-02-22_13h42.29.510,Memory and Syntax,2022.2.5,164.92125009861752,
,brocanto/stims/to_use/sentence31.png,lu pleck nim li,,,,,0,0,0,0,,,,,,,,,,,,,,,,,,,,,,,,,0,0,0,0,,,,,,,,,,,,,,,,,,,,,,,,,,,,,,,,,,,,,,,,,,,,,,,,,,,,,55.82612539999536,55.82612539999536,56.76786359999096,56.76786359999096,,,,,,,,,,,,,,1,2,2023-02-22_13h42.29.510,Memory and Syntax,2022.2.5,164.92125009861752,
,brocanto/stims/to_use/sentence65.png,yab lu neimo lu vode,,,,,0,0,0,0,,,,,,,,,,,,,,,,,,,,,,,,,0,1,1,1,,,,,,,,,,,,,,,,,,,,,,,,,,,,,,,,,,,,,,,,,,,,,,,,,,,,,,,63.36896849999903,63.36896849999903,,,,,,,,,,,,,,1,2,2023-02-22_13h42.29.510,Memory and Syntax,2022.2.5,164.92125009861752,
,brocanto/stims/to_use/sentence63.png,yab lu neimo lu neep,,,,,0,0,0,0,,,,,,,,,,,,,,,,,,,,,,,,,0,2,2,2,,,,,,,,,,,,,,,,,,,,,,,,,,,,,,,,,,,,,,,,,,,,,,,,,,,,,,,69.97241539999959,69.97241539999959,,,,,,,,,,,,,,1,2,2023-02-22_13h42.29.510,Memory and Syntax,2022.2.5,164.92125009861752,
,brocanto/stims/to_use/sentence68.png,lu neep praz li,,,,,0,0,0,0,,,,,,,,,,,,,,,,,,,,,,,,,0,3,3,3,,,,,,,,,,,,,,,,,,,,,,,,,,,,,,,,,,,,,,,,,,,,,,,,,,,,,,,76.5716892000055,76.5716892000055,,,,,,,,,,,,,,1,2,2023-02-22_13h42.29.510,Memory and Syntax,2022.2.5,164.92125009861752,
,brocanto/stims/to_use/sentence39.png,yab lu pleck lu vode,,,,,0,0,0,0,,,,,,,,,,,,,,,,,,,,,,,,,0,4,4,4,,,,,,,,,,,,,,,,,,,,,,,,,,,,,,,,,,,,,,,,,,,,,,,,,,,,,,,83.1705021999951,83.1705021999951,,,,,,,,,,,,,,1,2,2023-02-22_13h42.29.510,Memory and Syntax,2022.2.5,164.92125009861752,
,brocanto/stims/to_use/sentence14.png,klin lu blom lu troise,,,,,0,0,0,0,,,,,,,,,,,,,,,,,,,,,,,,,0,5,5,5,,,,,,,,,,,,,,,,,,,,,,,,,,,,,,,,,,,,,,,,,,,,,,,,,,,,,,,89.78362559998641,89.78362559998641,,,,,,,,,,,,,,1,2,2023-02-22_13h42.29.510,Memory and Syntax,2022.2.5,164.92125009861752,
,brocanto/stims/to_use/sentence105.png,lu blom zayma li,,,,,0,0,0,0,,,,,,,,,,,,,,,,,,,,,,,,,0,6,6,6,,,,,,,,,,,,,,,,,,,,,,,,,,,,,,,,,,,,,,,,,,,,,,,,,,,,,,,96.36644610000076,96.36644610000076,,,,,,,,,,,,,,1,2,2023-02-22_13h42.29.510,Memory and Syntax,2022.2.5,164.92125009861752,
,brocanto/stims/to_use/sentence103.png,lu pleck zayma li,,,,,0,0,0,0,,,,,,,,,,,,,,,,,,,,,,,,,0,7,7,7,,,,,,,,,,,,,,,,,,,,,,,,,,,,,,,,,,,,,,,,,,,,,,,,,,,,,,,102.96573840000201,102.96573840000201,,,,,,,,,,,,,,1,2,2023-02-22_13h42.29.510,Memory and Syntax,2022.2.5,164.92125009861752,
,brocanto/stims/to_use/sentence17.png,klin lu vode lu neep,,,,,0,0,0,0,,,,,,,,,,,,,,,,,,,,,,,,,0,8,8,8,,,,,,,,,,,,,,,,,,,,,,,,,,,,,,,,,,,,,,,,,,,,,,,,,,,,,,,109.61198180000065,109.61198180000065,,,,,,,,,,,,,,1,2,2023-02-22_13h42.29.510,Memory and Syntax,2022.2.5,164.92125009861752,
,brocanto/stims/to_use/sentence12.png,klin lu blom lu neep,,,,,0,0,0,0,,,,,,,,,,,,,,,,,,,,,,,,,0,9,9,9,,,,,,,,,,,,,,,,,,,,,,,,,,,,,,,,,,,,,,,,,,,,,,,,,,,,,,,116.20644670000183,116.20644670000183,,,,,,,,,,,,,,1,2,2023-02-22_13h42.29.510,Memory and Syntax,2022.2.5,164.92125009861752,
,brocanto/stims/to_use/sentence29.png,klin lu neimo lu vode,,,,,0,0,0,0,,,,,,,,,,,,,,,,,,,,,,,,,0,10,10,10,,,,,,,,,,,,,,,,,,,,,,,,,,,,,,,,,,,,,,,,,,,,,,,,,,,,,,,122.78643450001255,122.78643450001255,,,,,,,,,,,,,,1,2,2023-02-22_13h42.29.510,Memory and Syntax,2022.2.5,164.92125009861752,
,brocanto/stims/to_use/sentence70.png,lu vode praz li,,,,,0,0,0,0,,,,,,,,,,,,,,,,,,,,,,,,,0,11,11,11,,,,,,,,,,,,,,,,,,,,,,,,,,,,,,,,,,,,,,,,,,,,,,,,,,,,,,,129.3727283999906,129.3727283999906,,,,,,,,,,,,,,1,2,2023-02-22_13h42.29.510,Memory and Syntax,2022.2.5,164.92125009861752,
,brocanto/stims/to_use/sentence107.png,lu troise zayma li,,,,,0,0,0,0,,,,,,,,,,,,,,,,,,,,,,,,,0,12,12,12,,,,,,,,,,,,,,,,,,,,,,,,,,,,,,,,,,,,,,,,,,,,,,,,,,,,,,,135.96655040001497,135.96655040001497,,,,,,,,,,,,,,1,2,2023-02-22_13h42.29.510,Memory and Syntax,2022.2.5,164.92125009861752,
,brocanto/stims/to_use/sentence32.png,lu neep nim li,,,,,0,0,0,0,,,,,,,,,,,,,,,,,,,,,,,,,0,13,13,13,,,,,,,,,,,,,,,,,,,,,,,,,,,,,,,,,,,,,,,,,,,,,,,,,,,,,,,142.5689818999963,142.5689818999963,,,,,,,,,,,,,,1,2,2023-02-22_13h42.29.510,Memory and Syntax,2022.2.5,164.92125009861752,
,brocanto/stims/to_use/sentence26.png,klin lu neimo lu pleck,,,,,0,0,0,0,,,,,,,,,,,,,,,,,,,,,,,,,0,14,14,14,,,,,,,,,,,,,,,,,,,,,,,,,,,,,,,,,,,,,,,,,,,,,,,,,,,,,,,149.18156450000242,149.18156450000242,,,,,,,,,,,,,,1,2,2023-02-22_13h42.29.510,Memory and Syntax,2022.2.5,164.92125009861752,
,brocanto/stims/to_use/sentence35.png,lu troise nim li,,,,,0,0,0,0,,,,,,,,,,,,,,,,,,,,,,,,,0,15,15,15,,,,,,,,,,,,,,,,,,,,,,,,,,,,,,,,,,,,,,,,,,,,,,,,,,,,,,,155.76817739999387,155.76817739999387,,,,,,,,,,,,,,1,2,2023-02-22_13h42.29.510,Memory and Syntax,2022.2.5,164.92125009861752,
,brocanto/stims/to_use/sentence79.png,noyka lu neep lu blom,,,,,0,0,0,0,,,,,,,,,,,,,,,,,,,,,,,,,0,16,16,16,,,,,,,,,,,,,,,,,,,,,,,,,,,,,,,,,,,,,,,,,,,,,,,,,,,,,,,162.3772992999875,162.3772992999875,,,,,,,,,,,,,,1,2,2023-02-22_13h42.29.510,Memory and Syntax,2022.2.5,164.92125009861752,
,brocanto/stims/to_use/sentence71.png,lu troise praz li,,,,,0,0,0,0,,,,,,,,,,,,,,,,,,,,,,,,,0,17,17,17,,,,,,,,,,,,,,,,,,,,,,,,,,,,,,,,,,,,,,,,,,,,,,,,,,,,,,,168.9743451999966,168.9743451999966,,,,,,,,,,,,,,1,2,2023-02-22_13h42.29.510,Memory and Syntax,2022.2.5,164.92125009861752,
,brocanto/stims/to_use/sentence75.png,noyka lu pleck lu vode,,,,,0,0,0,0,,,,,,,,,,,,,,,,,,,,,,,,,0,18,18,18,,,,,,,,,,,,,,,,,,,,,,,,,,,,,,,,,,,,,,,,,,,,,,,,,,,,,,,175.57694500000798,175.57694500000798,,,,,,,,,,,,,,1,2,2023-02-22_13h42.29.510,Memory and Syntax,2022.2.5,164.92125009861752,
,brocanto/stims/to_use/sentence72.png,lu neimo praz li,,,,,0,0,0,0,,,,,,,,,,,,,,,,,,,,,,,,,0,19,19,19,,,,,,,,,,,,,,,,,,,,,,,,,,,,,,,,,,,,,,,,,,,,,,,,,,,,,,,182.16640029998962,182.16640029998962,,,,,,,,,,,,,,1,2,2023-02-22_13h42.29.510,Memory and Syntax,2022.2.5,164.92125009861752,
,brocanto/stims/to_use/sentence36.png,lu neimo nim li,,,,,0,0,0,0,,,,,,,,,,,,,,,,,,,,,,,,,0,20,20,20,,,,,,,,,,,,,,,,,,,,,,,,,,,,,,,,,,,,,,,,,,,,,,,,,,,,,,,188.76681480000843,188.76681480000843,,,,,,,,,,,,,,1,2,2023-02-22_13h42.29.510,Memory and Syntax,2022.2.5,164.92125009861752,
,brocanto/stims/to_use/sentence53.png,yab lu vode lu neep,,,,,0,0,0,0,,,,,,,,,,,,,,,,,,,,,,,,,0,21,21,21,,,,,,,,,,,,,,,,,,,,,,,,,,,,,,,,,,,,,,,,,,,,,,,,,,,,,,,195.37230759998783,195.37230759998783,,,,,,,,,,,,,,1,2,2023-02-22_13h42.29.510,Memory and Syntax,2022.2.5,164.92125009861752,
,brocanto/stims/to_use/sentence69.png,lu blom praz li,,,,,0,0,0,0,,,,,,,,,,,,,,,,,,,,,,,,,0,22,22,22,,,,,,,,,,,,,,,,,,,,,,,,,,,,,,,,,,,,,,,,,,,,,,,,,,,,,,,201.96754300000612,201.96754300000612,,,,,,,,,,,,,,1,2,2023-02-22_13h42.29.510,Memory and Syntax,2022.2.5,164.92125009861752,
,brocanto/stims/to_use/sentence104.png,lu neep zayma li,,,,,0,0,0,0,,,,,,,,,,,,,,,,,,,,,,,,,0,23,23,23,,,,,,,,,,,,,,,,,,,,,,,,,,,,,,,,,,,,,,,,,,,,,,,,,,,,,,,208.56909070000984,208.56909070000984,,,,,,,,,,,,,,1,2,2023-02-22_13h42.29.510,Memory and Syntax,2022.2.5,164.92125009861752,
,brocanto/stims/to_use/sentence89.png,noyka lu vode lu neep,,,,,0,0,0,0,,,,,,,,,,,,,,,,,,,,,,,,,0,24,24,24,,,,,,,,,,,,,,,,,,,,,,,,,,,,,,,,,,,,,,,,,,,,,,,,,,,,,,,215.17711170000257,215.17711170000257,,,,,,,,,,,,,,1,2,2023-02-22_13h42.29.510,Memory and Syntax,2022.2.5,164.92125009861752,
,brocanto/stims/to_use/sentence102.png,noyka lu neimo lu troise,,,,,0,0,0,0,,,,,,,,,,,,,,,,,,,,,,,,,0,25,25,25,,,,,,,,,,,,,,,,,,,,,,,,,,,,,,,,,,,,,,,,,,,,,,,,,,,,,,,221.7772171999968,221.7772171999968,,,,,,,,,,,,,,1,2,2023-02-22_13h42.29.510,Memory and Syntax,2022.2.5,164.92125009861752,
,brocanto/stims/to_use/sentence44.png,yab lu neep lu vode,,,,,0,0,0,0,,,,,,,,,,,,,,,,,,,,,,,,,0,26,26,26,,,,,,,,,,,,,,,,,,,,,,,,,,,,,,,,,,,,,,,,,,,,,,,,,,,,,,,228.37682949998998,228.37682949998998,,,,,,,,,,,,,,1,2,2023-02-22_13h42.29.510,Memory and Syntax,2022.2.5,164.92125009861752,
,brocanto/stims/to_use/sentence34.png,lu vode nim li,,,,,0,0,0,0,,,,,,,,,,,,,,,,,,,,,,,,,0,27,27,27,,,,,,,,,,,,,,,,,,,,,,,,,,,,,,,,,,,,,,,,,,,,,,,,,,,,,,,234.96515249999356,234.96515249999356,,,,,,,,,,,,,,1,2,2023-02-22_13h42.29.510,Memory and Syntax,2022.2.5,164.92125009861752,
,,,,,,,,,,,,,,,,,,,,,,,,,,,,,,,,,,,,,,,,,,,,,,,,,,,,,,,,,,,,,,,,,,,,,,,,,,,,,,,,,,,,,,,,,,,,,,,241.55534170000465,241.55534170000465,253.01823180000065,253.01823180000065,253.60067189999972,253.77970029998687,253.87636860000202,254.10162880001008,254.10162880001008,,"[0.3716705999977421, 0.18198490000213496, 0.49186929999268614, 0.35385660000611097, 0.5858901999890804, 0.4456744000199251, 0.712163199990755, 0.6135605000017677, 0.8922065999940969]",254.10162880001008,254.10162880001008,,,,,,,
