word,img,Session1.thisRepN,Session1.thisTrialN,Session1.thisN,Session1.thisIndex,Session2.thisRepN,Session2.thisTrialN,Session2.thisN,Session2.thisIndex,s2_engAJT_trials.thisRepN,s2_engAJT_trials.thisTrialN,s2_engAJT_trials.thisN,s2_engAJT_trials.thisIndex,S2_vocabPhase.thisRepN,S2_vocabPhase.thisTrialN,S2_vocabPhase.thisN,S2_vocabPhase.thisIndex,S2_vocabRep.thisRepN,S2_vocabRep.thisTrialN,S2_vocabRep.thisN,S2_vocabRep.thisIndex,S2_vocabLearnTrials.thisRepN,S2_vocabLearnTrials.thisTrialN,S2_vocabLearnTrials.thisN,S2_vocabLearnTrials.thisIndex,S2_vocabTestTrials.thisRepN,S2_vocabTestTrials.thisTrialN,S2_vocabTestTrials.thisN,S2_vocabTestTrials.thisIndex,too_fast_punish.thisRepN,too_fast_punish.thisTrialN,too_fast_punish.thisN,too_fast_punish.thisIndex,load_text.started,load_text.stopped,ajt_instr.started,ajt_instr.stopped,start_ajt.keys,start_ajt.rt,start_ajt.started,start_ajt.stopped,vocab_text.started,vocab_text.stopped,vocab_image.started,vocab_image.stopped,S2_vrepeat.started,S2_vrepeat.stopped,S2_vrepeat_key_resp.keys,S2_vrepeat_key_resp.rt,S2_vrepeat_key_resp.started,S2_vrepeat_key_resp.stopped,vtest_instr_text.started,vtest_instr_text.stopped,S2_vocabTest_resp,end_vocabTest_trial,S2_vtest_key_resp.keys,S2_vtest_key_resp.rt,S2_vtest_key_resp.started,S2_vtest_key_resp.stopped,S2_vtest_text.started,S2_vtest_text.stopped,S2_vtest_img.started,S2_vtest_img.stopped,S2_vtest_fb.started,S2_vtest_fb.stopped,S2_vtest_eval.started,S2_vtest_eval.stopped,S2_v_phase_end.keys,S2_v_phase_end.rt,S2_v_phase_end.started,S2_v_phase_end.stopped,participant,session,date,expName,psychopyVersion,frameRate,
lu neep,brocanto/stims/to_use/doctor2.jpg,,,,,0,0,0,0,,,,,0,0,0,0,0,0,0,0,0,0,0,1,,,,,,,,,32.14401602745056,None,34.15802597999573,None,f,2.633263111114502,34.15802597999573,None,39.31672406196594,None,39.31672406196594,None,,,,,,,,,,,,,,,,,,,,,,,,,,,1,2,2022-10-15_23h00.06.152,memory and syntax,2022.1.1,59.924364189143816,
lu troise,brocanto/stims/to_use/janitor2.jpg,,,,,0,0,0,0,,,,,0,0,0,0,0,0,0,0,0,1,1,4,,,,,,,,,,,,,,,,,42.00153207778931,None,42.00153207778931,None,,,,,,,,,,,,,,,,,,,,,,,,,,,1,2,2022-10-15_23h00.06.152,memory and syntax,2022.1.1,59.924364189143816,
lu blom,brocanto/stims/to_use/firefighter3.jpg,,,,,0,0,0,0,,,,,0,0,0,0,0,0,0,0,0,2,2,2,,,,,,,,,,,,,,,,,46.65183901786804,None,46.65183901786804,None,,,,,,,,,,,,,,,,,,,,,,,,,,,1,2,2022-10-15_23h00.06.152,memory and syntax,2022.1.1,59.924364189143816,
lu pleck,brocanto/stims/to_use/mechanic1.jpg,,,,,0,0,0,0,,,,,0,0,0,0,0,0,0,0,0,3,3,0,,,,,,,,,,,,,,,,,47.8917191028595,None,47.8917191028595,None,,,,,,,,,,,,,,,,,,,,,,,,,,,1,2,2022-10-15_23h00.06.152,memory and syntax,2022.1.1,59.924364189143816,
lu neimo,brocanto/stims/to_use/pilot3.jpg,,,,,0,0,0,0,,,,,0,0,0,0,0,0,0,0,0,4,4,5,,,,,,,,,,,,,,,,,49.002187967300415,None,49.002187967300415,None,,,,,,,,,,,,,,,,,,,,,,,,,,,1,2,2022-10-15_23h00.06.152,memory and syntax,2022.1.1,59.924364189143816,
lu vode,brocanto/stims/to_use/chef1.jpg,,,,,0,0,0,0,,,,,0,0,0,0,0,0,0,0,0,5,5,3,,,,,,,,,,,,,,,,,50.865511894226074,None,50.865511894226074,None,,,,,,,,,,,,,,,,,,,,,,,,,,,1,2,2022-10-15_23h00.06.152,memory and syntax,2022.1.1,59.924364189143816,
lu vode,brocanto/stims/to_use/chef1.jpg,,,,,0,0,0,0,,,,,0,0,0,0,0,0,0,0,1,0,6,3,,,,,,,,,,,,,,,,,52.73316407203674,None,52.73316407203674,None,,,,,,,,,,,,,,,,,,,,,,,,,,,1,2,2022-10-15_23h00.06.152,memory and syntax,2022.1.1,59.924364189143816,
lu troise,brocanto/stims/to_use/janitor2.jpg,,,,,0,0,0,0,,,,,0,0,0,0,0,0,0,0,1,1,7,4,,,,,,,,,,,,,,,,,56.31008696556091,None,56.31008696556091,None,,,,,,,,,,,,,,,,,,,,,,,,,,,1,2,2022-10-15_23h00.06.152,memory and syntax,2022.1.1,59.924364189143816,
lu pleck,brocanto/stims/to_use/mechanic1.jpg,,,,,0,0,0,0,,,,,0,0,0,0,0,0,0,0,1,2,8,0,,,,,,,,,,,,,,,,,56.96338510513306,None,56.96338510513306,None,,,,,,,,,,,,,,,,,,,,,,,,,,,1,2,2022-10-15_23h00.06.152,memory and syntax,2022.1.1,59.924364189143816,
lu blom,brocanto/stims/to_use/firefighter3.jpg,,,,,0,0,0,0,,,,,0,0,0,0,0,0,0,0,1,3,9,2,,,,,,,,,,,,,,,,,57.663317918777466,None,57.663317918777466,None,,,,,,,,,,,,,,,,,,,,,,,,,,,1,2,2022-10-15_23h00.06.152,memory and syntax,2022.1.1,59.924364189143816,
lu neimo,brocanto/stims/to_use/pilot3.jpg,,,,,0,0,0,0,,,,,0,0,0,0,0,0,0,0,1,4,10,5,,,,,,,,,,,,,,,,,58.290257930755615,None,58.290257930755615,None,,,,,,,,,,,,,,,,,,,,,,,,,,,1,2,2022-10-15_23h00.06.152,memory and syntax,2022.1.1,59.924364189143816,
lu neep,brocanto/stims/to_use/doctor2.jpg,,,,,0,0,0,0,,,,,0,0,0,0,0,0,0,0,1,5,11,1,,,,,,,,,,,,,,,,,59.506885051727295,None,59.506885051727295,None,,,,,,,,,,,,,,,,,,,,,,,,,,,1,2,2022-10-15_23h00.06.152,memory and syntax,2022.1.1,59.924364189143816,
lu pleck,brocanto/stims/to_use/mechanic1.jpg,,,,,0,0,0,0,,,,,0,0,0,0,,,,,,,,,0,0,0,0,,,,,,,,,,,,,,,,,60.27727007865906,None,t,3.8996570110321045,60.27727007865906,None,64.19386410713196,None,lu pleck,triggered,"['l', 'u', 'space', 'p', 'l', 'e', 'c', 'k', 'return']","[1.3854920864105225, 1.5171749591827393, 1.671091079711914, 1.904339075088501, 1.9418461322784424, 2.0910329818725586, 2.3087949752807617, 2.4178690910339355, 2.756625175476074]",65.55402708053589,None,65.55402708053589,None,65.55402708053589,None,68.34586095809937,None,,,,,,,1,2,2022-10-15_23h00.06.152,memory and syntax,2022.1.1,59.924364189143816,
lu neep,brocanto/stims/to_use/doctor2.jpg,,,,,0,0,0,0,,,,,0,0,0,0,,,,,,,,,0,1,1,1,,,,,,,,,,,,,,,,,,,,,,,,,jijdfv,triggered,"['i', 'j', 'd', 'f', 'v', 'return']","[1.8003239631652832, 1.8865530490875244, 2.0186679363250732, 2.045811891555786, 2.205821990966797, 2.8726160526275635]",69.82308506965637,None,69.82308506965637,None,69.82308506965637,None,72.73494911193848,None,,,,,,,1,2,2022-10-15_23h00.06.152,memory and syntax,2022.1.1,59.924364189143816,
lu blom,brocanto/stims/to_use/firefighter3.jpg,,,,,0,0,0,0,,,,,0,0,0,0,,,,,,,,,0,2,2,2,,,,,,,,,,,,,,,,,,,,,,,,,,triggered,"['return', 'return']","[0.4468522071838379, 1.8905551433563232]",73.74191904067993,None,73.74191904067993,None,73.74191904067993,None,79.65702605247498,79.65702605247498,,,,,,,1,2,2022-10-15_23h00.06.152,memory and syntax,2022.1.1,59.924364189143816,
lu vode,brocanto/stims/to_use/chef1.jpg,,,,,0,0,0,0,,,,,0,0,0,0,,,,,,,,,0,3,3,3,,,,,,,,,,,,,,,,,,,,,,,,,,triggered,"['return', 'return']","[0.32531094551086426, 1.0325169563293457]",81.73168706893921,None,81.73168706893921,None,81.73168706893921,None,86.78937792778015,86.78937792778015,,,,,,,1,2,2022-10-15_23h00.06.152,memory and syntax,2022.1.1,59.924364189143816,
lu troise,brocanto/stims/to_use/janitor2.jpg,,,,,0,0,0,0,,,,,0,0,0,0,,,,,,,,,0,4,4,4,,,,,,,,,,,,,,,,,,,,,,,,,,triggered,"['return', 'return']","[0.06219005584716797, 0.2519841194152832]",88.38832688331604,None,88.38832688331604,None,88.38832688331604,None,92.68787002563477,None,,,,,,,1,2,2022-10-15_23h00.06.152,memory and syntax,2022.1.1,59.924364189143816,
lu neimo,brocanto/stims/to_use/pilot3.jpg,,,,,0,0,0,0,,,,,0,0,0,0,,,,,,,,,0,5,5,5,,,,,,,,,,,,,,,,,,,,,,,,,,triggered,"['return', 'return']","[0.0368189811706543, 0.20476484298706055]",93.72305703163147,None,93.72305703163147,None,93.72305703163147,None,97.95393204689026,97.95393204689026,,,,,,,1,2,2022-10-15_23h00.06.152,memory and syntax,2022.1.1,59.924364189143816,
lu pleck,brocanto/stims/to_use/mechanic1.jpg,,,,,0,0,0,0,,,,,0,0,0,0,,,,,,,,,1,0,6,0,,,,,,,,,,,,,,,,,,,,,,,,,,triggered,"['return', 'return']","[0.14640092849731445, 0.312838077545166]",98.95830392837524,None,98.95830392837524,None,98.95830392837524,None,103.30275106430054,103.30275106430054,,,,,,,1,2,2022-10-15_23h00.06.152,memory and syntax,2022.1.1,59.924364189143816,
lu neep,brocanto/stims/to_use/doctor2.jpg,,,,,0,0,0,0,,,,,0,0,0,0,,,,,,,,,1,1,7,1,,,,,,,,,,,,,,,,,,,,,,,,,,triggered,"['return', 'return']","[0.14256691932678223, 0.29126882553100586]",104.75665092468262,None,104.75665092468262,None,104.75665092468262,None,109.08580207824707,None,,,,,,,1,2,2022-10-15_23h00.06.152,memory and syntax,2022.1.1,59.924364189143816,
lu blom,brocanto/stims/to_use/firefighter3.jpg,,,,,0,0,0,0,,,,,0,0,0,0,,,,,,,,,1,2,8,2,,,,,,,,,,,,,,,,,,,,,,,,,,triggered,"['return', 'return']","[0.0045719146728515625, 0.1718590259552002]",110.09101796150208,None,110.09101796150208,None,110.09101796150208,None,114.2842481136322,114.2842481136322,,,,,,,1,2,2022-10-15_23h00.06.152,memory and syntax,2022.1.1,59.924364189143816,
lu vode,brocanto/stims/to_use/chef1.jpg,,,,,0,0,0,0,,,,,0,0,0,0,,,,,,,,,1,3,9,3,,,,,,,,,,,,,,,,,,,,,,,,,,triggered,"['return', 'return']","[0.09767007827758789, 0.26561594009399414]",116.3628990650177,None,116.3628990650177,None,116.3628990650177,None,120.65031409263611,120.65031409263611,,,,,,,1,2,2022-10-15_23h00.06.152,memory and syntax,2022.1.1,59.924364189143816,
lu troise,brocanto/stims/to_use/janitor2.jpg,,,,,0,0,0,0,,,,,0,0,0,0,,,,,,,,,1,4,10,4,,,,,,,,,,,,,,,,,,,,,,,,,,triggered,"['return', 'return']","[0.15173888206481934, 0.3196120262145996]",122.11241507530212,None,122.11241507530212,None,122.11241507530212,None,126.4658510684967,None,,,,,,,1,2,2022-10-15_23h00.06.152,memory and syntax,2022.1.1,59.924364189143816,
lu neimo,brocanto/stims/to_use/pilot3.jpg,,,,,0,0,0,0,,,,,0,0,0,0,,,,,,,,,1,5,11,5,,,,,,,,,,,,,,,,,,,,,,,,,,triggered,"['return', 'return']","[0.16293001174926758, 0.34598612785339355]",127.50112104415894,None,127.50112104415894,None,127.50112104415894,None,131.88171100616455,None,,,,,,,1,2,2022-10-15_23h00.06.152,memory and syntax,2022.1.1,59.924364189143816,
,,,,,,0,0,0,0,,,,,0,0,0,0,,,,,,,,,,,,,,,,,,,,,,,,,,,,,,,,,,,,,,,,,,,,,,,,,132.8894670009613,None,return,0.14334487915039062,132.8894670009613,None,1,2,2022-10-15_23h00.06.152,memory and syntax,2022.1.1,59.924364189143816,
