load.started,load.stopped,Sona ID,Participant ID,Session,date,expName,psychopyVersion,OS,frameRate,cvmtInstr.started,cvmtInstr.stopped,cvmtTaskInstr.started,cvmtTaskInstr.stopped,presentDesign.started,presentDesign.stopped,cvmt_key_resp.keys,cvmt_key_resp.corr,cvmtNoResp.started,cvmtNoResp.stopped,cvmt_key_resp2.keys,cvmt_key_resp2.corr,cvmt_key_resp2.rt,cvmt_key_resp2.duration,cvmtSampleFB.started,cvmtSampleFB.stopped,key_resp_15.keys,cvmtSampleFBFinal.started,cvmtSampleFBFinal.stopped,cvmt_final_samp_fb_key_resp.keys,cvmtTrials.thisRepN,cvmtTrials.thisTrialN,cvmtTrials.thisN,cvmtTrials.thisIndex,cvmtTrials.ran,cvmt_design,old_or_new,cvmt_key_resp.rt,cvmt_key_resp.duration,key_resp_15.rt,key_resp_15.duration,cvmt_final_samp_fb_key_resp.rt,cvmt_final_samp_fb_key_resp.duration,cvmtDelay.started,cvmtDelay.stopped,cvmt timer,engAJT_instr.started,engAJT_instr.stopped,start_ajt.keys,start_ajt.rt,start_ajt.duration,engAJT.started,engAJT.stopped,acceptability.response,acceptability.rt,engAJT_trials.thisRepN,engAJT_trials.thisTrialN,engAJT_trials.thisN,engAJT_trials.thisIndex,engAJT_trials.ran,ajt_list,list_position,condition,item,testSent
0,0.263,95955,128,1,2024-03-05_18h38.25.822,Memory and Syntax,2023.2.3,MacIntel,66.66666667,,,,,,,,,,,,,,,,,,,,,,,,,,,,,,,,,,,,,,,,,,,,,,,,,,,,,,,
,,95955,128,1,2024-03-05_18h38.25.822,Memory and Syntax,2023.2.3,MacIntel,66.66666667,0.288,62.404,62.413,180.55,180.596,182.551,,0,182.551,193.767,n,1,11.185,,193.767,193.771,,193.771,193.774,,0,0,0,0,1,cvmt/sample/s1.jpg,n,,,,,,,,,,,,,,,,,,,,,,,,,,,,
,,95955,128,1,2024-03-05_18h38.25.822,Memory and Syntax,2023.2.3,MacIntel,66.66666667,,,,,193.776,195.767,,0,195.767,195.899,n,1,0.118,,195.899,195.9,,195.9,195.9,,0,1,1,1,1,cvmt/sample/s2.jpg,n,,,,,,,,,,,,,,,,,,,,,,,,,,,,
,,95955,128,1,2024-03-05_18h38.25.822,Memory and Syntax,2023.2.3,MacIntel,66.66666667,,,,,195.9,197.9,o,1,197.9,197.901,,0,,,197.901,197.901,,197.901,197.901,,0,2,2,2,1,cvmt/sample/s3.jpg,o,1.063,,,,,,,,,,,,,,,,,,,,,,,,,,,
,,95955,128,1,2024-03-05_18h38.25.822,Memory and Syntax,2023.2.3,MacIntel,66.66666667,,,,,197.901,199.9,n,1,199.9,199.9,,0,,,199.901,199.901,,199.901,199.901,,0,3,3,3,1,cvmt/sample/s4.jpg,n,1.062,,,,,,,,,,,,,,,,,,,,,,,,,,,
,,95955,128,1,2024-03-05_18h38.25.822,Memory and Syntax,2023.2.3,MacIntel,66.66666667,,,,,199.901,201.9,n,1,201.9,201.901,,0,,,201.901,201.901,,201.901,201.901,,0,4,4,4,1,cvmt/sample/s5.jpg,n,0.962,,,,,,,,,,,,,,,,,,,,,,,,,,,
,,95955,128,1,2024-03-05_18h38.25.822,Memory and Syntax,2023.2.3,MacIntel,66.66666667,,,,,201.901,203.9,n,1,203.9,203.9,,0,,,203.9,203.9,,203.9,203.9,,0,5,5,5,1,cvmt/sample/s6.jpg,n,0.996,,,,,,,,,,,,,,,,,,,,,,,,,,,
,,95955,128,1,2024-03-05_18h38.25.822,Memory and Syntax,2023.2.3,MacIntel,66.66666667,,,,,203.901,205.9,o,1,205.9,205.9,,0,,,205.9,205.9,,205.9,205.9,,0,6,6,6,1,cvmt/sample/s7.jpg,o,0.913,,,,,,,,,,,,,,,,,,,,,,,,,,,
,,95955,128,1,2024-03-05_18h38.25.822,Memory and Syntax,2023.2.3,MacIntel,66.66666667,,,,,205.9,207.9,n,1,207.9,207.9,,0,,,207.9,207.901,,207.901,207.901,,0,7,7,7,1,cvmt/sample/s8.jpg,n,0.928,,,,,,,,,,,,,,,,,,,,,,,,,,,
,,95955,128,1,2024-03-05_18h38.25.822,Memory and Syntax,2023.2.3,MacIntel,66.66666667,,,,,207.901,209.9,n,1,209.901,209.901,,0,,,209.901,209.901,,209.901,209.901,,0,8,8,8,1,cvmt/sample/s9.jpg,n,1.062,,,,,,,,,,,,,,,,,,,,,,,,,,,
,,95955,128,1,2024-03-05_18h38.25.822,Memory and Syntax,2023.2.3,MacIntel,66.66666667,,,,,209.901,211.899,n,1,211.899,211.899,,0,,,211.899,211.899,,211.899,211.899,,0,9,9,9,1,cvmt/sample/s10.jpg,n,0.662,,,,,,,,,,,,,,,,,,,,,,,,,,,
,,95955,128,1,2024-03-05_18h38.25.822,Memory and Syntax,2023.2.3,MacIntel,66.66666667,,,,,211.9,213.9,n,0,213.9,213.9,,0,,,213.9,271.298,c,271.298,291.436,c,0,10,10,10,1,cvmt/sample/s11.jpg,o,0.579,,57.37,,20.096,,,,,,,,,,,,,,,,,,,,,,,
,,95955,128,1,2024-03-05_18h38.25.822,Memory and Syntax,2023.2.3,MacIntel,66.66666667,,,291.438,303.049,303.061,305.065,n,1,305.065,305.065,,0,,,305.065,305.069,,305.069,305.073,,0,0,0,0,1,cvmt/test_items/t1.jpeg,n,1.113,,,,,,,,,,,,,,,,,,,,,,,,,,,
,,95955,128,1,2024-03-05_18h38.25.822,Memory and Syntax,2023.2.3,MacIntel,66.66666667,,,,,305.074,307.065,,0,307.065,307.132,n,1,0.046,,307.132,307.132,,307.132,307.132,,0,1,1,1,1,cvmt/test_items/t2.jpeg,n,,,,,,,,,,,,,,,,,,,,,,,,,,,,
,,95955,128,1,2024-03-05_18h38.25.822,Memory and Syntax,2023.2.3,MacIntel,66.66666667,,,,,307.132,309.131,o,1,309.131,309.132,,0,,,309.132,309.132,,309.132,309.132,,0,2,2,2,1,cvmt/test_items/t3.jpeg,o,1.641,,,,,,,,,,,,,,,,,,,,,,,,,,,
,,95955,128,1,2024-03-05_18h38.25.822,Memory and Syntax,2023.2.3,MacIntel,66.66666667,,,,,309.132,311.132,n,0,311.132,311.132,,0,,,311.132,311.132,,311.132,311.132,,0,3,3,3,1,cvmt/test_items/t4.jpeg,o,1.085,,,,,,,,,,,,,,,,,,,,,,,,,,,
,,95955,128,1,2024-03-05_18h38.25.822,Memory and Syntax,2023.2.3,MacIntel,66.66666667,,,,,311.132,313.131,n,0,313.132,313.132,,0,,,313.132,313.132,,313.132,313.132,,0,4,4,4,1,cvmt/test_items/t5.jpeg,o,0.886,,,,,,,,,,,,,,,,,,,,,,,,,,,
,,95955,128,1,2024-03-05_18h38.25.822,Memory and Syntax,2023.2.3,MacIntel,66.66666667,,,,,313.132,315.131,n,0,315.131,315.131,,0,,,315.131,315.132,,315.132,315.132,,0,5,5,5,1,cvmt/test_items/t6.jpeg,o,1.071,,,,,,,,,,,,,,,,,,,,,,,,,,,
,,95955,128,1,2024-03-05_18h38.25.822,Memory and Syntax,2023.2.3,MacIntel,66.66666667,,,,,315.132,317.131,n,0,317.131,317.132,,0,,,317.132,317.132,,317.132,317.132,,0,6,6,6,1,cvmt/test_items/t7.jpeg,o,0.997,,,,,,,,,,,,,,,,,,,,,,,,,,,
,,95955,128,1,2024-03-05_18h38.25.822,Memory and Syntax,2023.2.3,MacIntel,66.66666667,,,,,317.132,319.131,o,1,319.131,319.132,,0,,,319.132,319.132,,319.132,319.132,,0,7,7,7,1,cvmt/test_items/t8.jpeg,o,1.006,,,,,,,,,,,,,,,,,,,,,,,,,,,
,,95955,128,1,2024-03-05_18h38.25.822,Memory and Syntax,2023.2.3,MacIntel,66.66666667,,,,,319.132,321.133,o,1,321.133,321.133,,0,,,321.133,321.133,,321.133,321.133,,0,8,8,8,1,cvmt/test_items/t9.jpeg,o,1.028,,,,,,,,,,,,,,,,,,,,,,,,,,,
,,95955,128,1,2024-03-05_18h38.25.822,Memory and Syntax,2023.2.3,MacIntel,66.66666667,,,,,321.133,323.131,o,1,323.131,323.132,,0,,,323.132,323.132,,323.132,323.132,,0,9,9,9,1,cvmt/test_items/t10.jpeg,o,0.974,,,,,,,,,,,,,,,,,,,,,,,,,,,
,,95955,128,1,2024-03-05_18h38.25.822,Memory and Syntax,2023.2.3,MacIntel,66.66666667,,,,,323.132,325.131,n,1,325.131,325.131,,0,,,325.131,325.132,,325.132,325.132,,0,10,10,10,1,cvmt/test_items/t11.jpeg,n,1.013,,,,,,,,,,,,,,,,,,,,,,,,,,,
,,95955,128,1,2024-03-05_18h38.25.822,Memory and Syntax,2023.2.3,MacIntel,66.66666667,,,,,325.132,327.131,n,0,327.131,327.131,,0,,,327.131,327.132,,327.132,327.132,,0,11,11,11,1,cvmt/test_items/t12.jpeg,o,0.742,,,,,,,,,,,,,,,,,,,,,,,,,,,
,,95955,128,1,2024-03-05_18h38.25.822,Memory and Syntax,2023.2.3,MacIntel,66.66666667,,,,,327.132,329.131,o,1,329.131,329.131,,0,,,329.131,329.132,,329.132,329.132,,0,12,12,12,1,cvmt/test_items/t13.jpeg,o,0.969,,,,,,,,,,,,,,,,,,,,,,,,,,,
,,95955,128,1,2024-03-05_18h38.25.822,Memory and Syntax,2023.2.3,MacIntel,66.66666667,,,,,329.132,331.131,n,0,331.131,331.131,,0,,,331.131,331.132,,331.132,331.132,,0,13,13,13,1,cvmt/test_items/t14.jpeg,o,0.688,,,,,,,,,,,,,,,,,,,,,,,,,,,
,,95955,128,1,2024-03-05_18h38.25.822,Memory and Syntax,2023.2.3,MacIntel,66.66666667,,,,,331.132,333.131,o,1,333.131,333.132,,0,,,333.132,333.132,,333.132,333.132,,0,14,14,14,1,cvmt/test_items/t15.jpeg,o,0.985,,,,,,,,,,,,,,,,,,,,,,,,,,,
,,95955,128,1,2024-03-05_18h38.25.822,Memory and Syntax,2023.2.3,MacIntel,66.66666667,,,,,333.132,335.131,o,1,335.131,335.131,,0,,,335.131,335.131,,335.132,335.132,,0,15,15,15,1,cvmt/test_items/t16.jpeg,o,1.287,,,,,,,,,,,,,,,,,,,,,,,,,,,
,,95955,128,1,2024-03-05_18h38.25.822,Memory and Syntax,2023.2.3,MacIntel,66.66666667,,,,,335.132,337.131,o,1,337.131,337.131,,0,,,337.131,337.132,,337.132,337.132,,0,16,16,16,1,cvmt/test_items/t17.jpeg,o,1.157,,,,,,,,,,,,,,,,,,,,,,,,,,,
,,95955,128,1,2024-03-05_18h38.25.822,Memory and Syntax,2023.2.3,MacIntel,66.66666667,,,,,337.132,339.131,n,0,339.131,339.131,,0,,,339.131,339.132,,339.132,339.132,,0,17,17,17,1,cvmt/test_items/t18.jpeg,o,0.886,,,,,,,,,,,,,,,,,,,,,,,,,,,
,,95955,128,1,2024-03-05_18h38.25.822,Memory and Syntax,2023.2.3,MacIntel,66.66666667,,,,,339.132,341.131,n,1,341.131,341.131,,0,,,341.131,341.132,,341.132,341.132,,0,18,18,18,1,cvmt/test_items/t19.jpeg,n,1.219,,,,,,,,,,,,,,,,,,,,,,,,,,,
,,95955,128,1,2024-03-05_18h38.25.822,Memory and Syntax,2023.2.3,MacIntel,66.66666667,,,,,341.132,343.131,o,1,343.131,343.131,,0,,,343.131,343.131,,343.131,343.132,,0,19,19,19,1,cvmt/test_items/t20.jpeg,o,1.592,,,,,,,,,,,,,,,,,,,,,,,,,,,
,,95955,128,1,2024-03-05_18h38.25.822,Memory and Syntax,2023.2.3,MacIntel,66.66666667,,,,,343.132,345.131,o,1,345.131,345.132,,0,,,345.132,345.132,,345.132,345.132,,0,20,20,20,1,cvmt/test_items/t21.jpeg,o,0.908,,,,,,,,,,,,,,,,,,,,,,,,,,,
,,95955,128,1,2024-03-05_18h38.25.822,Memory and Syntax,2023.2.3,MacIntel,66.66666667,,,,,345.132,347.131,o,1,347.131,347.131,,0,,,347.131,347.131,,347.131,347.132,,0,21,21,21,1,cvmt/test_items/t22.jpeg,o,0.901,,,,,,,,,,,,,,,,,,,,,,,,,,,
,,95955,128,1,2024-03-05_18h38.25.822,Memory and Syntax,2023.2.3,MacIntel,66.66666667,,,,,347.132,349.131,o,0,349.131,362.681,n,1,13.533,,362.681,362.682,,362.682,362.682,,0,22,22,22,1,cvmt/test_items/t23.jpeg,n,0.816,,,,,,,,,,,,,,,,,,,,,,,,,,,
,,95955,128,1,2024-03-05_18h38.25.822,Memory and Syntax,2023.2.3,MacIntel,66.66666667,,,,,362.682,364.681,n,1,364.681,364.682,,0,,,364.682,364.682,,364.682,364.682,,0,23,23,23,1,cvmt/test_items/t24.jpeg,n,1.042,,,,,,,,,,,,,,,,,,,,,,,,,,,
,,95955,128,1,2024-03-05_18h38.25.822,Memory and Syntax,2023.2.3,MacIntel,66.66666667,,,,,364.682,366.681,o,1,366.681,366.681,,0,,,366.681,366.682,,366.682,366.682,,0,24,24,24,1,cvmt/test_items/t25.jpeg,o,1.095,,,,,,,,,,,,,,,,,,,,,,,,,,,
,,95955,128,1,2024-03-05_18h38.25.822,Memory and Syntax,2023.2.3,MacIntel,66.66666667,,,,,366.682,368.681,o,0,368.681,368.681,,0,,,368.681,368.682,,368.682,368.682,,0,25,25,25,1,cvmt/test_items/t26.jpeg,n,1.127,,,,,,,,,,,,,,,,,,,,,,,,,,,
,,95955,128,1,2024-03-05_18h38.25.822,Memory and Syntax,2023.2.3,MacIntel,66.66666667,,,,,368.682,370.681,o,1,370.681,370.682,,0,,,370.682,370.682,,370.682,370.682,,0,26,26,26,1,cvmt/test_items/t27.jpeg,o,1.038,,,,,,,,,,,,,,,,,,,,,,,,,,,
,,95955,128,1,2024-03-05_18h38.25.822,Memory and Syntax,2023.2.3,MacIntel,66.66666667,,,,,370.682,372.681,n,1,372.681,372.681,,0,,,372.681,372.682,,372.682,372.682,,0,27,27,27,1,cvmt/test_items/t28.jpeg,n,0.804,,,,,,,,,,,,,,,,,,,,,,,,,,,
,,95955,128,1,2024-03-05_18h38.25.822,Memory and Syntax,2023.2.3,MacIntel,66.66666667,,,,,372.682,374.681,o,0,374.681,374.681,,0,,,374.681,374.682,,374.682,374.682,,0,28,28,28,1,cvmt/test_items/t29.jpeg,n,1.167,,,,,,,,,,,,,,,,,,,,,,,,,,,
,,95955,128,1,2024-03-05_18h38.25.822,Memory and Syntax,2023.2.3,MacIntel,66.66666667,,,,,374.682,376.681,o,1,376.681,376.681,,0,,,376.681,376.682,,376.682,376.682,,0,29,29,29,1,cvmt/test_items/t30.jpeg,o,1.15,,,,,,,,,,,,,,,,,,,,,,,,,,,
,,95955,128,1,2024-03-05_18h38.25.822,Memory and Syntax,2023.2.3,MacIntel,66.66666667,,,,,376.682,378.681,o,1,378.681,378.681,,0,,,378.681,378.681,,378.681,378.682,,0,30,30,30,1,cvmt/test_items/t31.jpeg,o,0.9,,,,,,,,,,,,,,,,,,,,,,,,,,,
,,95955,128,1,2024-03-05_18h38.25.822,Memory and Syntax,2023.2.3,MacIntel,66.66666667,,,,,378.682,380.681,n,1,380.681,380.681,,0,,,380.681,380.681,,380.682,380.682,,0,31,31,31,1,cvmt/test_items/t32.jpeg,n,0.832,,,,,,,,,,,,,,,,,,,,,,,,,,,
,,95955,128,1,2024-03-05_18h38.25.822,Memory and Syntax,2023.2.3,MacIntel,66.66666667,,,,,380.682,382.681,n,1,382.681,382.681,,0,,,382.681,382.681,,382.682,382.682,,0,32,32,32,1,cvmt/test_items/t33.jpeg,n,0.902,,,,,,,,,,,,,,,,,,,,,,,,,,,
,,95955,128,1,2024-03-05_18h38.25.822,Memory and Syntax,2023.2.3,MacIntel,66.66666667,,,,,382.682,384.68,o,1,384.68,384.68,,0,,,384.68,384.68,,384.68,384.68,,0,33,33,33,1,cvmt/test_items/t34.jpeg,o,1.034,,,,,,,,,,,,,,,,,,,,,,,,,,,
,,95955,128,1,2024-03-05_18h38.25.822,Memory and Syntax,2023.2.3,MacIntel,66.66666667,,,,,384.681,386.681,o,0,386.681,386.681,,0,,,386.681,386.681,,386.681,386.681,,0,34,34,34,1,cvmt/test_items/t35.jpeg,n,0.887,,,,,,,,,,,,,,,,,,,,,,,,,,,
,,95955,128,1,2024-03-05_18h38.25.822,Memory and Syntax,2023.2.3,MacIntel,66.66666667,,,,,386.682,388.681,o,1,388.681,388.681,,0,,,388.681,388.681,,388.681,388.682,,0,35,35,35,1,cvmt/test_items/t36.jpeg,o,0.802,,,,,,,,,,,,,,,,,,,,,,,,,,,
,,95955,128,1,2024-03-05_18h38.25.822,Memory and Syntax,2023.2.3,MacIntel,66.66666667,,,,,388.682,390.681,o,0,390.681,390.681,,0,,,390.681,390.681,,390.681,390.681,,0,36,36,36,1,cvmt/test_items/t37.jpeg,n,1.065,,,,,,,,,,,,,,,,,,,,,,,,,,,
,,95955,128,1,2024-03-05_18h38.25.822,Memory and Syntax,2023.2.3,MacIntel,66.66666667,,,,,390.682,392.681,o,1,392.681,392.681,,0,,,392.681,392.681,,392.681,392.682,,0,37,37,37,1,cvmt/test_items/t38.jpeg,o,0.984,,,,,,,,,,,,,,,,,,,,,,,,,,,
,,95955,128,1,2024-03-05_18h38.25.822,Memory and Syntax,2023.2.3,MacIntel,66.66666667,,,,,392.682,394.68,n,1,394.68,394.68,,0,,,394.68,394.68,,394.68,394.68,,0,38,38,38,1,cvmt/test_items/t39.jpeg,n,0.96,,,,,,,,,,,,,,,,,,,,,,,,,,,
,,95955,128,1,2024-03-05_18h38.25.822,Memory and Syntax,2023.2.3,MacIntel,66.66666667,,,,,394.68,396.681,o,1,396.681,396.681,,0,,,396.681,396.681,,396.681,396.681,,0,39,39,39,1,cvmt/test_items/t40.jpeg,o,0.958,,,,,,,,,,,,,,,,,,,,,,,,,,,
,,95955,128,1,2024-03-05_18h38.25.822,Memory and Syntax,2023.2.3,MacIntel,66.66666667,,,,,396.681,398.681,o,0,398.681,398.681,,0,,,398.681,398.681,,398.681,398.681,,0,40,40,40,1,cvmt/test_items/t41.jpeg,n,0.885,,,,,,,,,,,,,,,,,,,,,,,,,,,
,,95955,128,1,2024-03-05_18h38.25.822,Memory and Syntax,2023.2.3,MacIntel,66.66666667,,,,,398.681,400.681,o,1,400.681,400.681,,0,,,400.681,400.681,,400.681,400.681,,0,41,41,41,1,cvmt/test_items/t42.jpeg,o,0.886,,,,,,,,,,,,,,,,,,,,,,,,,,,
,,95955,128,1,2024-03-05_18h38.25.822,Memory and Syntax,2023.2.3,MacIntel,66.66666667,,,,,400.681,402.681,o,1,402.681,402.681,,0,,,402.681,402.681,,402.681,402.681,,0,42,42,42,1,cvmt/test_items/t43.jpeg,o,0.964,,,,,,,,,,,,,,,,,,,,,,,,,,,
,,95955,128,1,2024-03-05_18h38.25.822,Memory and Syntax,2023.2.3,MacIntel,66.66666667,,,,,402.681,404.681,n,1,404.681,404.681,,0,,,404.681,404.681,,404.681,404.681,,0,43,43,43,1,cvmt/test_items/t44.jpeg,n,1.07,,,,,,,,,,,,,,,,,,,,,,,,,,,
,,95955,128,1,2024-03-05_18h38.25.822,Memory and Syntax,2023.2.3,MacIntel,66.66666667,,,,,404.682,406.681,o,1,406.681,406.681,,0,,,406.681,406.681,,406.681,406.681,,0,44,44,44,1,cvmt/test_items/t45.jpeg,o,0.963,,,,,,,,,,,,,,,,,,,,,,,,,,,
,,95955,128,1,2024-03-05_18h38.25.822,Memory and Syntax,2023.2.3,MacIntel,66.66666667,,,,,406.682,408.681,o,1,408.681,408.681,,0,,,408.681,408.681,,408.681,408.681,,0,45,45,45,1,cvmt/test_items/t46.jpeg,o,0.933,,,,,,,,,,,,,,,,,,,,,,,,,,,
,,95955,128,1,2024-03-05_18h38.25.822,Memory and Syntax,2023.2.3,MacIntel,66.66666667,,,,,408.681,410.681,o,1,410.681,410.681,,0,,,410.681,410.681,,410.681,410.681,,0,46,46,46,1,cvmt/test_items/t47.jpeg,o,0.85,,,,,,,,,,,,,,,,,,,,,,,,,,,
,,95955,128,1,2024-03-05_18h38.25.822,Memory and Syntax,2023.2.3,MacIntel,66.66666667,,,,,410.681,412.68,o,0,412.68,412.68,,0,,,412.68,412.68,,412.68,412.68,,0,47,47,47,1,cvmt/test_items/t48.jpeg,n,0.933,,,,,,,,,,,,,,,,,,,,,,,,,,,
,,95955,128,1,2024-03-05_18h38.25.822,Memory and Syntax,2023.2.3,MacIntel,66.66666667,,,,,412.681,414.68,o,1,414.68,414.68,,0,,,414.68,414.68,,414.68,414.68,,0,48,48,48,1,cvmt/test_items/t49.jpeg,o,0.901,,,,,,,,,,,,,,,,,,,,,,,,,,,
,,95955,128,1,2024-03-05_18h38.25.822,Memory and Syntax,2023.2.3,MacIntel,66.66666667,,,,,414.68,416.681,o,1,416.681,416.681,,0,,,416.681,416.681,,416.681,416.681,,0,49,49,49,1,cvmt/test_items/t50.jpeg,o,1.036,,,,,,,,,,,,,,,,,,,,,,,,,,,
,,95955,128,1,2024-03-05_18h38.25.822,Memory and Syntax,2023.2.3,MacIntel,66.66666667,,,,,416.681,418.681,n,1,418.681,418.681,,0,,,418.681,418.681,,418.681,418.681,,0,50,50,50,1,cvmt/test_items/t51.jpeg,n,0.934,,,,,,,,,,,,,,,,,,,,,,,,,,,
,,95955,128,1,2024-03-05_18h38.25.822,Memory and Syntax,2023.2.3,MacIntel,66.66666667,,,,,418.681,420.68,o,1,420.68,420.681,,0,,,420.681,420.681,,420.681,420.681,,0,51,51,51,1,cvmt/test_items/t52.jpeg,o,0.867,,,,,,,,,,,,,,,,,,,,,,,,,,,
,,95955,128,1,2024-03-05_18h38.25.822,Memory and Syntax,2023.2.3,MacIntel,66.66666667,,,,,420.681,422.682,o,1,422.682,422.682,,0,,,422.682,422.682,,422.682,422.682,,0,52,52,52,1,cvmt/test_items/t53.jpeg,o,1.252,,,,,,,,,,,,,,,,,,,,,,,,,,,
,,95955,128,1,2024-03-05_18h38.25.822,Memory and Syntax,2023.2.3,MacIntel,66.66666667,,,,,422.683,424.68,o,1,424.68,424.68,,0,,,424.68,424.68,,424.68,424.68,,0,53,53,53,1,cvmt/test_items/t54.jpeg,o,1.001,,,,,,,,,,,,,,,,,,,,,,,,,,,
,,95955,128,1,2024-03-05_18h38.25.822,Memory and Syntax,2023.2.3,MacIntel,66.66666667,,,,,424.68,426.68,o,1,426.68,426.68,,0,,,426.68,426.681,,426.681,426.681,,0,54,54,54,1,cvmt/test_items/t55.jpeg,o,0.871,,,,,,,,,,,,,,,,,,,,,,,,,,,
,,95955,128,1,2024-03-05_18h38.25.822,Memory and Syntax,2023.2.3,MacIntel,66.66666667,,,,,426.681,428.681,o,1,428.681,428.681,,0,,,428.681,428.681,,428.681,428.681,,0,55,55,55,1,cvmt/test_items/t56.jpeg,o,0.87,,,,,,,,,,,,,,,,,,,,,,,,,,,
,,95955,128,1,2024-03-05_18h38.25.822,Memory and Syntax,2023.2.3,MacIntel,66.66666667,,,,,428.681,430.68,o,1,430.68,430.68,,0,,,430.68,430.681,,430.681,430.681,,0,56,56,56,1,cvmt/test_items/t57.jpeg,o,0.838,,,,,,,,,,,,,,,,,,,,,,,,,,,
,,95955,128,1,2024-03-05_18h38.25.822,Memory and Syntax,2023.2.3,MacIntel,66.66666667,,,,,430.681,432.68,o,0,432.68,432.68,,0,,,432.68,432.681,,432.681,432.681,,0,57,57,57,1,cvmt/test_items/t58.jpeg,n,0.973,,,,,,,,,,,,,,,,,,,,,,,,,,,
,,95955,128,1,2024-03-05_18h38.25.822,Memory and Syntax,2023.2.3,MacIntel,66.66666667,,,,,432.681,434.68,n,1,434.68,434.68,,0,,,434.68,434.68,,434.68,434.68,,0,58,58,58,1,cvmt/test_items/t59.jpeg,n,1.507,,,,,,,,,,,,,,,,,,,,,,,,,,,
,,95955,128,1,2024-03-05_18h38.25.822,Memory and Syntax,2023.2.3,MacIntel,66.66666667,,,,,434.681,436.68,o,1,436.68,436.68,,0,,,436.68,436.681,,436.681,436.681,,0,59,59,59,1,cvmt/test_items/t60.jpeg,o,0.92,,,,,,,,,,,,,,,,,,,,,,,,,,,
,,95955,128,1,2024-03-05_18h38.25.822,Memory and Syntax,2023.2.3,MacIntel,66.66666667,,,,,436.681,438.68,n,0,438.68,438.68,,0,,,438.68,438.681,,438.681,438.681,,0,60,60,60,1,cvmt/test_items/t61.jpeg,o,1.174,,,,,,,,,,,,,,,,,,,,,,,,,,,
,,95955,128,1,2024-03-05_18h38.25.822,Memory and Syntax,2023.2.3,MacIntel,66.66666667,,,,,438.681,440.68,o,1,440.68,440.68,,0,,,440.68,440.681,,440.681,440.681,,0,61,61,61,1,cvmt/test_items/t62.jpeg,o,0.957,,,,,,,,,,,,,,,,,,,,,,,,,,,
,,95955,128,1,2024-03-05_18h38.25.822,Memory and Syntax,2023.2.3,MacIntel,66.66666667,,,,,440.681,442.679,o,1,442.679,442.679,,0,,,442.679,442.679,,442.679,442.68,,0,62,62,62,1,cvmt/test_items/t63.jpeg,o,0.824,,,,,,,,,,,,,,,,,,,,,,,,,,,
,,95955,128,1,2024-03-05_18h38.25.822,Memory and Syntax,2023.2.3,MacIntel,66.66666667,,,,,442.68,444.68,n,0,444.68,444.68,,0,,,444.68,444.68,,444.68,444.68,,0,63,63,63,1,cvmt/test_items/t64.jpeg,o,1.356,,,,,,,,,,,,,,,,,,,,,,,,,,,
,,95955,128,1,2024-03-05_18h38.25.822,Memory and Syntax,2023.2.3,MacIntel,66.66666667,,,,,444.681,446.68,o,1,446.68,446.68,,0,,,446.68,446.681,,446.681,446.681,,0,64,64,64,1,cvmt/test_items/t65.jpeg,o,0.888,,,,,,,,,,,,,,,,,,,,,,,,,,,
,,95955,128,1,2024-03-05_18h38.25.822,Memory and Syntax,2023.2.3,MacIntel,66.66666667,,,,,446.681,448.68,o,1,448.68,448.68,,0,,,448.68,448.681,,448.681,448.681,,0,65,65,65,1,cvmt/test_items/t66.jpeg,o,0.821,,,,,,,,,,,,,,,,,,,,,,,,,,,
,,95955,128,1,2024-03-05_18h38.25.822,Memory and Syntax,2023.2.3,MacIntel,66.66666667,,,,,448.681,450.68,n,1,450.68,450.68,,0,,,450.68,450.681,,450.681,450.681,,0,66,66,66,1,cvmt/test_items/t67.jpeg,n,1.007,,,,,,,,,,,,,,,,,,,,,,,,,,,
,,95955,128,1,2024-03-05_18h38.25.822,Memory and Syntax,2023.2.3,MacIntel,66.66666667,,,,,450.681,452.68,n,0,452.68,452.68,,0,,,452.68,452.68,,452.68,452.681,,0,67,67,67,1,cvmt/test_items/t68.jpeg,o,0.755,,,,,,,,,,,,,,,,,,,,,,,,,,,
,,95955,128,1,2024-03-05_18h38.25.822,Memory and Syntax,2023.2.3,MacIntel,66.66666667,,,,,452.681,454.68,o,1,454.68,454.68,,0,,,454.68,454.68,,454.68,454.68,,0,68,68,68,1,cvmt/test_items/t69.jpeg,o,0.893,,,,,,,,,,,,,,,,,,,,,,,,,,,
,,95955,128,1,2024-03-05_18h38.25.822,Memory and Syntax,2023.2.3,MacIntel,66.66666667,,,,,454.681,456.679,o,1,456.679,456.679,,0,,,456.679,456.679,,456.679,456.679,,0,69,69,69,1,cvmt/test_items/t70.jpeg,o,0.957,,,,,,,,,,,,,,,,,,,,,,,,,,,
,,95955,128,1,2024-03-05_18h38.25.822,Memory and Syntax,2023.2.3,MacIntel,66.66666667,,,,,456.679,458.68,o,0,458.68,458.68,,0,,,458.68,458.68,,458.68,458.681,,0,70,70,70,1,cvmt/test_items/t71.jpeg,n,0.856,,,,,,,,,,,,,,,,,,,,,,,,,,,
,,95955,128,1,2024-03-05_18h38.25.822,Memory and Syntax,2023.2.3,MacIntel,66.66666667,,,,,458.681,460.68,o,1,460.68,460.68,,0,,,460.68,460.681,,460.681,460.681,,0,71,71,71,1,cvmt/test_items/t72.jpeg,o,0.84,,,,,,,,,,,,,,,,,,,,,,,,,,,
,,95955,128,1,2024-03-05_18h38.25.822,Memory and Syntax,2023.2.3,MacIntel,66.66666667,,,,,460.681,462.68,o,1,462.68,462.68,,0,,,462.68,462.68,,462.68,462.68,,0,72,72,72,1,cvmt/test_items/t73.jpeg,o,0.773,,,,,,,,,,,,,,,,,,,,,,,,,,,
,,95955,128,1,2024-03-05_18h38.25.822,Memory and Syntax,2023.2.3,MacIntel,66.66666667,,,,,462.68,464.68,o,1,464.68,464.68,,0,,,464.68,464.68,,464.681,464.681,,0,73,73,73,1,cvmt/test_items/t74.jpeg,o,0.809,,,,,,,,,,,,,,,,,,,,,,,,,,,
,,95955,128,1,2024-03-05_18h38.25.822,Memory and Syntax,2023.2.3,MacIntel,66.66666667,,,,,464.681,466.68,o,1,466.68,466.68,,0,,,466.68,466.68,,466.68,466.68,,0,74,74,74,1,cvmt/test_items/t75.jpeg,o,0.892,,,,,,,,,,,,,,,,,,,,,,,,,,,
,,95955,128,1,2024-03-05_18h38.25.822,Memory and Syntax,2023.2.3,MacIntel,66.66666667,,,,,466.681,468.68,o,1,468.68,468.68,,0,,,468.68,468.68,,468.68,468.68,,0,75,75,75,1,cvmt/test_items/t76.jpeg,o,0.922,,,,,,,,,,,,,,,,,,,,,,,,,,,
,,95955,128,1,2024-03-05_18h38.25.822,Memory and Syntax,2023.2.3,MacIntel,66.66666667,,,,,468.68,470.68,o,1,470.68,470.68,,0,,,470.68,470.68,,470.68,470.68,,0,76,76,76,1,cvmt/test_items/t77.jpeg,o,0.817,,,,,,,,,,,,,,,,,,,,,,,,,,,
,,95955,128,1,2024-03-05_18h38.25.822,Memory and Syntax,2023.2.3,MacIntel,66.66666667,,,,,470.68,472.679,o,1,472.68,472.68,,0,,,472.68,472.68,,472.68,472.68,,0,77,77,77,1,cvmt/test_items/t78.jpeg,o,0.92,,,,,,,,,,,,,,,,,,,,,,,,,,,
,,95955,128,1,2024-03-05_18h38.25.822,Memory and Syntax,2023.2.3,MacIntel,66.66666667,,,,,472.68,474.68,n,0,474.68,474.68,,0,,,474.68,474.68,,474.68,474.68,,0,78,78,78,1,cvmt/test_items/t79.jpeg,o,1.276,,,,,,,,,,,,,,,,,,,,,,,,,,,
,,95955,128,1,2024-03-05_18h38.25.822,Memory and Syntax,2023.2.3,MacIntel,66.66666667,,,,,474.68,476.68,n,1,476.68,476.68,,0,,,476.68,476.68,,476.68,476.68,,0,79,79,79,1,cvmt/test_items/t80.jpeg,n,1.333,,,,,,,,,,,,,,,,,,,,,,,,,,,
,,95955,128,1,2024-03-05_18h38.25.822,Memory and Syntax,2023.2.3,MacIntel,66.66666667,,,,,476.68,478.68,o,1,478.68,478.68,,0,,,478.68,478.68,,478.68,478.68,,0,80,80,80,1,cvmt/test_items/t81.jpeg,o,0.9,,,,,,,,,,,,,,,,,,,,,,,,,,,
,,95955,128,1,2024-03-05_18h38.25.822,Memory and Syntax,2023.2.3,MacIntel,66.66666667,,,,,478.68,480.68,o,1,480.68,480.68,,0,,,480.68,480.68,,480.68,480.68,,0,81,81,81,1,cvmt/test_items/t82.jpeg,o,1.335,,,,,,,,,,,,,,,,,,,,,,,,,,,
,,95955,128,1,2024-03-05_18h38.25.822,Memory and Syntax,2023.2.3,MacIntel,66.66666667,,,,,480.681,482.68,o,1,482.68,482.68,,0,,,482.68,482.68,,482.68,482.68,,0,82,82,82,1,cvmt/test_items/t83.jpeg,o,1.049,,,,,,,,,,,,,,,,,,,,,,,,,,,
,,95955,128,1,2024-03-05_18h38.25.822,Memory and Syntax,2023.2.3,MacIntel,66.66666667,,,,,482.68,484.68,o,1,484.68,484.68,,0,,,484.68,484.68,,484.68,484.68,,0,83,83,83,1,cvmt/test_items/t84.jpeg,o,1.016,,,,,,,,,,,,,,,,,,,,,,,,,,,
,,95955,128,1,2024-03-05_18h38.25.822,Memory and Syntax,2023.2.3,MacIntel,66.66666667,,,,,484.681,486.68,n,0,486.68,486.68,,0,,,486.68,486.68,,486.68,486.68,,0,84,84,84,1,cvmt/test_items/t85.jpeg,o,0.751,,,,,,,,,,,,,,,,,,,,,,,,,,,
,,95955,128,1,2024-03-05_18h38.25.822,Memory and Syntax,2023.2.3,MacIntel,66.66666667,,,,,486.68,488.68,n,0,488.68,488.68,,0,,,488.68,488.68,,488.68,488.68,,0,85,85,85,1,cvmt/test_items/t86.jpeg,o,0.685,,,,,,,,,,,,,,,,,,,,,,,,,,,
,,95955,128,1,2024-03-05_18h38.25.822,Memory and Syntax,2023.2.3,MacIntel,66.66666667,,,,,488.68,490.679,n,0,490.68,490.68,,0,,,490.68,490.68,,490.68,490.68,,0,86,86,86,1,cvmt/test_items/t87.jpeg,o,1.124,,,,,,,,,,,,,,,,,,,,,,,,,,,
,,95955,128,1,2024-03-05_18h38.25.822,Memory and Syntax,2023.2.3,MacIntel,66.66666667,,,,,490.68,492.679,n,1,492.679,492.679,,0,,,492.68,492.68,,492.68,492.68,,0,87,87,87,1,cvmt/test_items/t88.jpeg,n,1.123,,,,,,,,,,,,,,,,,,,,,,,,,,,
,,95955,128,1,2024-03-05_18h38.25.822,Memory and Syntax,2023.2.3,MacIntel,66.66666667,,,,,492.68,494.679,o,0,494.679,494.68,,0,,,494.68,494.68,,494.68,494.68,,0,88,88,88,1,cvmt/test_items/t89.jpeg,n,0.937,,,,,,,,,,,,,,,,,,,,,,,,,,,
,,95955,128,1,2024-03-05_18h38.25.822,Memory and Syntax,2023.2.3,MacIntel,66.66666667,,,,,494.68,496.679,o,1,496.679,496.68,,0,,,496.68,496.68,,496.68,496.68,,0,89,89,89,1,cvmt/test_items/t90.jpeg,o,0.889,,,,,,,,,,,,,,,,,,,,,,,,,,,
,,95955,128,1,2024-03-05_18h38.25.822,Memory and Syntax,2023.2.3,MacIntel,66.66666667,,,,,496.68,498.68,n,0,498.68,498.68,,0,,,498.68,498.68,,498.68,498.68,,0,90,90,90,1,cvmt/test_items/t91.jpeg,o,1.206,,,,,,,,,,,,,,,,,,,,,,,,,,,
,,95955,128,1,2024-03-05_18h38.25.822,Memory and Syntax,2023.2.3,MacIntel,66.66666667,,,,,498.68,500.679,n,0,500.679,500.679,,0,,,500.679,500.679,,500.679,500.679,,0,91,91,91,1,cvmt/test_items/t92.jpeg,o,1.248,,,,,,,,,,,,,,,,,,,,,,,,,,,
,,95955,128,1,2024-03-05_18h38.25.822,Memory and Syntax,2023.2.3,MacIntel,66.66666667,,,,,500.679,502.679,o,1,502.679,502.679,,0,,,502.679,502.679,,502.679,502.679,,0,92,92,92,1,cvmt/test_items/t93.jpeg,o,0.978,,,,,,,,,,,,,,,,,,,,,,,,,,,
,,95955,128,1,2024-03-05_18h38.25.822,Memory and Syntax,2023.2.3,MacIntel,66.66666667,,,,,502.68,504.679,n,0,504.679,504.679,,0,,,504.679,504.68,,504.68,504.68,,0,93,93,93,1,cvmt/test_items/t94.jpeg,o,1.092,,,,,,,,,,,,,,,,,,,,,,,,,,,
,,95955,128,1,2024-03-05_18h38.25.822,Memory and Syntax,2023.2.3,MacIntel,66.66666667,,,,,504.68,506.679,n,0,506.679,506.679,,0,,,506.679,506.68,,506.68,506.68,,0,94,94,94,1,cvmt/test_items/t95.jpeg,o,1.023,,,,,,,,,,,,,,,,,,,,,,,,,,,
,,95955,128,1,2024-03-05_18h38.25.822,Memory and Syntax,2023.2.3,MacIntel,66.66666667,,,,,506.68,508.68,o,1,508.68,508.681,,0,,,508.681,508.681,,508.681,508.681,,0,95,95,95,1,cvmt/test_items/t96.jpeg,o,0.875,,,,,,,,,,,,,,,,,,,,,,,,,,,
,,95955,128,1,2024-03-05_18h38.25.822,Memory and Syntax,2023.2.3,MacIntel,66.66666667,,,,,508.681,510.679,o,1,510.679,510.679,,0,,,510.679,510.68,,510.68,510.68,,0,96,96,96,1,cvmt/test_items/t97.jpeg,o,1.201,,,,,,,,,,,,,,,,,,,,,,,,,,,
,,95955,128,1,2024-03-05_18h38.25.822,Memory and Syntax,2023.2.3,MacIntel,66.66666667,,,,,510.68,512.679,n,1,512.679,512.679,,0,,,512.679,512.679,,512.679,512.68,,0,97,97,97,1,cvmt/test_items/t98.jpeg,n,0.883,,,,,,,,,,,,,,,,,,,,,,,,,,,
,,95955,128,1,2024-03-05_18h38.25.822,Memory and Syntax,2023.2.3,MacIntel,66.66666667,,,,,512.68,514.679,o,1,514.679,514.679,,0,,,514.679,514.68,,514.68,514.68,,0,98,98,98,1,cvmt/test_items/t99.jpeg,o,1.34,,,,,,,,,,,,,,,,,,,,,,,,,,,
,,95955,128,1,2024-03-05_18h38.25.822,Memory and Syntax,2023.2.3,MacIntel,66.66666667,,,,,514.68,516.679,n,0,516.679,516.679,,0,,,516.679,516.68,,516.68,516.68,,0,99,99,99,1,cvmt/test_items/t100.jpeg,o,0.852,,,,,,,,,,,,,,,,,,,,,,,,,,,
,,95955,128,1,2024-03-05_18h38.25.822,Memory and Syntax,2023.2.3,MacIntel,66.66666667,,,,,516.68,518.679,o,1,518.679,518.679,,0,,,518.679,518.68,,518.68,518.68,,0,100,100,100,1,cvmt/test_items/t101.jpeg,o,1.206,,,,,,,,,,,,,,,,,,,,,,,,,,,
,,95955,128,1,2024-03-05_18h38.25.822,Memory and Syntax,2023.2.3,MacIntel,66.66666667,,,,,518.68,520.678,n,0,520.678,520.678,,0,,,520.678,520.679,,520.679,520.679,,0,101,101,101,1,cvmt/test_items/t102.jpeg,o,1.39,,,,,,,,,,,,,,,,,,,,,,,,,,,
,,95955,128,1,2024-03-05_18h38.25.822,Memory and Syntax,2023.2.3,MacIntel,66.66666667,,,,,520.679,522.679,n,0,522.679,522.679,,0,,,522.679,522.679,,522.679,522.68,,0,102,102,102,1,cvmt/test_items/t103.jpeg,o,0.89,,,,,,,,,,,,,,,,,,,,,,,,,,,
,,95955,128,1,2024-03-05_18h38.25.822,Memory and Syntax,2023.2.3,MacIntel,66.66666667,,,,,522.68,524.679,o,1,524.679,524.679,,0,,,524.679,524.679,,524.679,524.679,,0,103,103,103,1,cvmt/test_items/t104.jpeg,o,0.789,,,,,,,,,,,,,,,,,,,,,,,,,,,
,,95955,128,1,2024-03-05_18h38.25.822,Memory and Syntax,2023.2.3,MacIntel,66.66666667,,,,,524.68,526.679,n,1,526.679,526.679,,0,,,526.679,526.68,,526.68,526.68,,0,104,104,104,1,cvmt/test_items/t105.jpeg,n,1.002,,,,,,,,,,,,,,,,,,,,,,,,,,,
,,95955,128,1,2024-03-05_18h38.25.822,Memory and Syntax,2023.2.3,MacIntel,66.66666667,,,,,526.68,528.679,o,1,528.679,528.679,,0,,,528.679,528.679,,528.679,528.679,,0,105,105,105,1,cvmt/test_items/t106.jpeg,o,0.952,,,,,,,,,,,,,,,,,,,,,,,,,,,
,,95955,128,1,2024-03-05_18h38.25.822,Memory and Syntax,2023.2.3,MacIntel,66.66666667,,,,,528.679,530.679,o,1,530.679,530.679,,0,,,530.679,530.679,,530.679,530.679,,0,106,106,106,1,cvmt/test_items/t107.jpeg,o,0.873,,,,,,,,,,,,,,,,,,,,,,,,,,,
,,95955,128,1,2024-03-05_18h38.25.822,Memory and Syntax,2023.2.3,MacIntel,66.66666667,,,,,530.68,532.679,n,0,532.679,532.679,,0,,,532.679,532.679,,532.679,532.68,,0,107,107,107,1,cvmt/test_items/t108.jpeg,o,1.018,,,,,,,,,,,,,,,,,,,,,,,,,,,
,,95955,128,1,2024-03-05_18h38.25.822,Memory and Syntax,2023.2.3,MacIntel,66.66666667,,,,,532.68,534.681,o,1,534.681,534.681,,0,,,534.681,534.681,,534.681,534.681,,0,108,108,108,1,cvmt/test_items/t109.jpeg,o,1.122,,,,,,,,,,,,,,,,,,,,,,,,,,,
,,95955,128,1,2024-03-05_18h38.25.822,Memory and Syntax,2023.2.3,MacIntel,66.66666667,,,,,534.681,536.678,n,0,536.678,536.678,,0,,,536.678,536.678,,536.678,536.678,,0,109,109,109,1,cvmt/test_items/t110.jpeg,o,1.241,,,,,,,,,,,,,,,,,,,,,,,,,,,
,,95955,128,1,2024-03-05_18h38.25.822,Memory and Syntax,2023.2.3,MacIntel,66.66666667,,,,,536.678,538.679,o,1,538.679,538.679,,0,,,538.679,538.679,,538.679,538.679,,0,110,110,110,1,cvmt/test_items/t111.jpeg,o,0.904,,,,,,,,,,,,,,,,,,,,,,,,,,,
,,95955,128,1,2024-03-05_18h38.25.822,Memory and Syntax,2023.2.3,MacIntel,66.66666667,,,,,538.68,540.679,o,1,540.679,540.679,,0,,,540.679,540.679,,540.679,540.679,,0,111,111,111,1,cvmt/test_items/t112.jpeg,o,0.856,,,,,,,,,,,,,,,,,,,,,,,,,,,
,,95955,128,1,2024-03-05_18h38.25.822,Memory and Syntax,2023.2.3,MacIntel,66.66666667,,,,,540.679,542.679,o,0,542.679,542.679,,0,,,542.679,542.679,,542.679,542.679,,0,112,112,112,1,cvmt/test_items/t113.jpeg,n,1.364,,,,,,,,,,,,,,,,,,,,,,,,,,,
,,95955,128,1,2024-03-05_18h38.25.822,Memory and Syntax,2023.2.3,MacIntel,66.66666667,,,,,542.68,544.679,n,0,544.679,544.679,,0,,,544.679,544.679,,544.679,544.679,,0,113,113,113,1,cvmt/test_items/t114.jpeg,o,1.515,,,,,,,,,,,,,,,,,,,,,,,,,,,
,,95955,128,1,2024-03-05_18h38.25.822,Memory and Syntax,2023.2.3,MacIntel,66.66666667,,,,,544.679,546.679,o,1,546.679,546.679,,0,,,546.679,546.679,,546.679,546.679,,0,114,114,114,1,cvmt/test_items/t115.jpeg,o,1.105,,,,,,,,,,,,,,,,,,,,,,,,,,,
,,95955,128,1,2024-03-05_18h38.25.822,Memory and Syntax,2023.2.3,MacIntel,66.66666667,,,,,546.679,548.679,n,0,548.679,548.679,,0,,,548.679,548.68,,548.68,548.68,,0,115,115,115,1,cvmt/test_items/t116.jpeg,o,1.517,,,,,,,,,,,,,,,,,,,,,,,,,,,
,,95955,128,1,2024-03-05_18h38.25.822,Memory and Syntax,2023.2.3,MacIntel,66.66666667,,,,,548.68,550.679,o,1,550.679,550.679,,0,,,550.679,550.679,,550.679,550.679,,0,116,116,116,1,cvmt/test_items/t117.jpeg,o,0.847,,,,,,,,,,,,,,,,,,,,,,,,,,,
,,95955,128,1,2024-03-05_18h38.25.822,Memory and Syntax,2023.2.3,MacIntel,66.66666667,,,,,550.68,552.679,o,1,552.679,552.679,,0,,,552.679,552.679,,552.679,552.679,,0,117,117,117,1,cvmt/test_items/t118.jpeg,o,0.84,,,,,,,,,,,,,,,,,,,,,,,,,,,
,,95955,128,1,2024-03-05_18h38.25.822,Memory and Syntax,2023.2.3,MacIntel,66.66666667,,,,,552.679,554.679,o,1,554.679,554.679,,0,,,554.679,554.679,,554.679,554.679,,0,118,118,118,1,cvmt/test_items/t119.jpeg,o,0.94,,,,,,,,,,,,,,,,,,,,,,,,,,,
,,95955,128,1,2024-03-05_18h38.25.822,Memory and Syntax,2023.2.3,MacIntel,66.66666667,,,,,554.679,556.679,o,1,556.679,556.679,,0,,,556.679,556.679,,556.679,556.679,,0,119,119,119,1,cvmt/test_items/t120.jpeg,o,0.753,,,,,,,,,,,,,,,,,,,,,,,,,,,
,,95955,128,1,2024-03-05_18h38.25.822,Memory and Syntax,2023.2.3,MacIntel,66.66666667,,,,,556.679,558.679,o,1,558.679,558.679,,0,,,558.679,558.679,,558.679,558.679,,0,120,120,120,1,cvmt/test_items/t121.jpeg,o,0.946,,,,,,,,,,,,,,,,,,,,,,,,,,,
,,95955,128,1,2024-03-05_18h38.25.822,Memory and Syntax,2023.2.3,MacIntel,66.66666667,,,,,558.679,560.678,o,1,560.679,560.679,,0,,,560.679,560.679,,560.679,560.679,,0,121,121,121,1,cvmt/test_items/t122.jpeg,o,1.12,,,,,,,,,,,,,,,,,,,,,,,,,,,
,,95955,128,1,2024-03-05_18h38.25.822,Memory and Syntax,2023.2.3,MacIntel,66.66666667,,,,,560.679,562.68,n,1,562.68,562.68,,0,,,562.68,562.68,,562.68,562.681,,0,122,122,122,1,cvmt/test_items/t123.jpeg,n,0.829,,,,,,,,,,,,,,,,,,,,,,,,,,,
,,95955,128,1,2024-03-05_18h38.25.822,Memory and Syntax,2023.2.3,MacIntel,66.66666667,,,,,562.681,564.678,n,0,564.678,564.679,,0,,,564.679,564.679,,564.679,564.679,,0,123,123,123,1,cvmt/test_items/t124.jpeg,o,1.79,,,,,,,,,,,,,,,,,,,,,,,,,,,
,,95955,128,1,2024-03-05_18h38.25.822,Memory and Syntax,2023.2.3,MacIntel,66.66666667,,,,,564.679,566.678,o,1,566.678,566.679,,0,,,566.679,566.679,,566.679,566.679,,0,124,124,124,1,cvmt/test_items/t125.jpeg,o,1.151,,,,,,,,,,,,,,,,,,,,,,,,,,,
,,95955,128,1,2024-03-05_18h38.25.822,Memory and Syntax,2023.2.3,MacIntel,66.66666667,,,,,566.679,568.678,o,1,568.679,568.679,,0,,,568.679,568.679,,568.679,568.679,,0,125,125,125,1,cvmt/test_items/t126.jpeg,o,0.942,,,,,,,,,,,,,,,,,,,,,,,,,,,
,,95955,128,1,2024-03-05_18h38.25.822,Memory and Syntax,2023.2.3,MacIntel,66.66666667,,,,,568.679,570.678,o,1,570.679,570.679,,0,,,570.679,570.679,,570.679,570.679,,0,126,126,126,1,cvmt/test_items/t127.jpeg,o,0.931,,,,,,,,,,,,,,,,,,,,,,,,,,,
,,95955,128,1,2024-03-05_18h38.25.822,Memory and Syntax,2023.2.3,MacIntel,66.66666667,,,,,570.679,572.678,o,1,572.678,572.679,,0,,,572.679,572.679,,572.679,572.679,,0,127,127,127,1,cvmt/test_items/t128.jpeg,o,0.8,,,,,,,,,,,,,,,,,,,,,,,,,,,
,,95955,128,1,2024-03-05_18h38.25.822,Memory and Syntax,2023.2.3,MacIntel,66.66666667,,,,,572.679,574.678,,0,574.679,591.545,n,0,16.846,,591.545,591.545,,591.545,591.545,,0,128,128,128,1,cvmt/test_items/t129.jpeg,o,,,,,,,,,,,,,,,,,,,,,,,,,,,,
,,95955,128,1,2024-03-05_18h38.25.822,Memory and Syntax,2023.2.3,MacIntel,66.66666667,,,,,591.545,593.545,o,1,593.545,593.545,,0,,,593.545,593.545,,593.545,593.545,,0,129,129,129,1,cvmt/test_items/t130.jpeg,o,1.367,,,,,,,,,,,,,,,,,,,,,,,,,,,
,,95955,128,1,2024-03-05_18h38.25.822,Memory and Syntax,2023.2.3,MacIntel,66.66666667,,,,,593.545,595.545,n,1,595.545,595.545,,0,,,595.545,595.545,,595.545,595.545,,0,130,130,130,1,cvmt/test_items/t131.jpeg,n,1.152,,,,,,,,,,,,,,,,,,,,,,,,,,,
,,95955,128,1,2024-03-05_18h38.25.822,Memory and Syntax,2023.2.3,MacIntel,66.66666667,,,,,595.545,597.545,o,1,597.545,597.545,,0,,,597.545,597.545,,597.545,597.545,,0,131,131,131,1,cvmt/test_items/t132.jpeg,o,0.957,,,,,,,,,,,,,,,,,,,,,,,,,,,
,,95955,128,1,2024-03-05_18h38.25.822,Memory and Syntax,2023.2.3,MacIntel,66.66666667,,,,,597.545,599.544,o,1,599.544,599.545,,0,,,599.545,599.545,,599.545,599.545,,0,132,132,132,1,cvmt/test_items/t133.jpeg,o,0.938,,,,,,,,,,,,,,,,,,,,,,,,,,,
,,95955,128,1,2024-03-05_18h38.25.822,Memory and Syntax,2023.2.3,MacIntel,66.66666667,,,,,599.545,601.545,o,1,601.545,601.545,,0,,,601.545,601.545,,601.545,601.545,,0,133,133,133,1,cvmt/test_items/t134.jpeg,o,1.021,,,,,,,,,,,,,,,,,,,,,,,,,,,
,,95955,128,1,2024-03-05_18h38.25.822,Memory and Syntax,2023.2.3,MacIntel,66.66666667,,,,,601.545,603.544,o,1,603.544,603.544,,0,,,603.545,603.545,,603.545,603.545,,0,134,134,134,1,cvmt/test_items/t135.jpeg,o,0.842,,,,,,,,,,,,,,,,,,,,,,,,,,,
,,95955,128,1,2024-03-05_18h38.25.822,Memory and Syntax,2023.2.3,MacIntel,66.66666667,,,,,,,,,,,,,,,,,,,,,,,,,,,,,,,,,,603.547,603.548,0.001,603.561,613.562,space,9.154,,613.57,620.311,4,6.736,0,0,0,0,1,1,1,WOV,8B,Practiced the virtuoso many pieces.
,,95955,128,1,2024-03-05_18h38.25.822,Memory and Syntax,2023.2.3,MacIntel,66.66666667,,,,,,,,,,,,,,,,,,,,,,,,,,,,,,,,,,,,,,,,,,620.311,626.111,6.9,5.791,0,1,1,1,1,1,2,AS,6A,The rickety old boat sank.
,,95955,128,1,2024-03-05_18h38.25.822,Memory and Syntax,2023.2.3,MacIntel,66.66666667,,,,,,,,,,,,,,,,,,,,,,,,,,,,,,,,,,,,,,,,,,626.111,631.294,7,5.178,0,2,2,2,1,1,3,WO,6A,The waiter set the table promptly.
,,95955,128,1,2024-03-05_18h38.25.822,Memory and Syntax,2023.2.3,MacIntel,66.66666667,,,,,,,,,,,,,,,,,,,,,,,,,,,,,,,,,,,,,,,,,,631.294,641.393,1.1,10.095,0,3,3,3,1,1,4,control,12B,They anticipate that everybody you do will contact Megan.
,,95955,128,1,2024-03-05_18h38.25.822,Memory and Syntax,2023.2.3,MacIntel,66.66666667,,,,,,,,,,,,,,,,,,,,,,,,,,,,,,,,,,,,,,,,,,641.393,644.927,7,3.529,0,4,4,4,1,1,5,ASV,11B,The cat moved himself away.
,,95955,128,1,2024-03-05_18h38.25.822,Memory and Syntax,2023.2.3,MacIntel,66.66666667,,,,,,,,,,,,,,,,,,,,,,,,,,,,,,,,,,,,,,,,,,644.927,650.944,2,6.012,0,5,5,5,1,1,6,ASV,7B,She laughed herself at the dog.
,,95955,128,1,2024-03-05_18h38.25.822,Memory and Syntax,2023.2.3,MacIntel,66.66666667,,,,,,,,,,,,,,,,,,,,,,,,,,,,,,,,,,,,,,,,,,650.944,658.16,4,7.211,0,6,6,6,1,1,7,AS,5A,The professor cried about the article.
,,95955,128,1,2024-03-05_18h38.25.822,Memory and Syntax,2023.2.3,MacIntel,66.66666667,,,,,,,,,,,,,,,,,,,,,,,,,,,,,,,,,,,,,,,,,,658.161,661.21,4,3.045,0,7,7,7,1,1,8,WO,5A,My sibling expected a good grade.
,,95955,128,1,2024-03-05_18h38.25.822,Memory and Syntax,2023.2.3,MacIntel,66.66666667,,,,,,,,,,,,,,,,,,,,,,,,,,,,,,,,,,,,,,,,,,661.211,667.443,7,6.229,0,8,8,8,1,1,9,filler,1A,There has been a man considered violent.
,,95955,128,1,2024-03-05_18h38.25.822,Memory and Syntax,2023.2.3,MacIntel,66.66666667,,,,,,,,,,,,,,,,,,,,,,,,,,,,,,,,,,,,,,,,,,667.443,671.677,2,4.229,0,9,9,9,1,1,10,AS,2A,Taylor subscribed to the channel.
,,95955,128,1,2024-03-05_18h38.25.822,Memory and Syntax,2023.2.3,MacIntel,66.66666667,,,,,,,,,,,,,,,,,,,,,,,,,,,,,,,,,,,,,,,,,,671.677,676.16,7,4.478,0,10,10,10,1,1,11,control,10B,There might fossils seem to be several miles underground.
,,95955,128,1,2024-03-05_18h38.25.822,Memory and Syntax,2023.2.3,MacIntel,66.66666667,,,,,,,,,,,,,,,,,,,,,,,,,,,,,,,,,,,,,,,,,,676.16,680.493,7,4.328,0,11,11,11,1,1,12,ASV,8B,Esperanza sighed herself at the desk.
,,95955,128,1,2024-03-05_18h38.25.822,Memory and Syntax,2023.2.3,MacIntel,66.66666667,,,,,,,,,,,,,,,,,,,,,,,,,,,,,,,,,,,,,,,,,,680.494,683.393,7,2.895,0,12,12,12,1,1,13,WOV,9B,Read we five pages each night.
,,95955,128,1,2024-03-05_18h38.25.822,Memory and Syntax,2023.2.3,MacIntel,66.66666667,,,,,,,,,,,,,,,,,,,,,,,,,,,,,,,,,,,,,,,,,,683.393,689.876,2,6.479,0,13,13,13,1,1,14,WOV,7B,Frightened the eerie sound Seth.
,,95955,128,1,2024-03-05_18h38.25.822,Memory and Syntax,2023.2.3,MacIntel,66.66666667,,,,,,,,,,,,,,,,,,,,,,,,,,,,,,,,,,,,,,,,,,689.876,693.91,6.9,4.028,0,14,14,14,1,1,15,filler,2A,"Arty is sick, and Mark is too."
,,95955,128,1,2024-03-05_18h38.25.822,Memory and Syntax,2023.2.3,MacIntel,66.66666667,,,,,,,,,,,,,,,,,,,,,,,,,,,,,,,,,,,,,,,,,,693.91,697.792,7,3.878,0,15,15,15,1,1,16,ASV,9B,The prime minister confessed herself to bribery.
,,95955,128,1,2024-03-05_18h38.25.822,Memory and Syntax,2023.2.3,MacIntel,66.66666667,,,,,,,,,,,,,,,,,,,,,,,,,,,,,,,,,,,,,,,,,,697.792,702.459,5.1,4.663,0,16,16,16,1,1,17,control,7B,Olivia told Gregory when to exonerate herself.
,,95955,128,1,2024-03-05_18h38.25.822,Memory and Syntax,2023.2.3,MacIntel,66.66666667,,,,,,,,,,,,,,,,,,,,,,,,,,,,,,,,,,,,,,,,,,702.459,706.392,4,3.929,0,17,17,17,1,1,18,control,11B,There are likely students to be in the library.
,,95955,128,1,2024-03-05_18h38.25.822,Memory and Syntax,2023.2.3,MacIntel,66.66666667,,,,,,,,,,,,,,,,,,,,,,,,,,,,,,,,,,,,,,,,,,706.393,710.826,2.9,4.429,0,18,18,18,1,1,19,filler,5A,I told Mandy who would win the election.
,,95955,128,1,2024-03-05_18h38.25.822,Memory and Syntax,2023.2.3,MacIntel,66.66666667,,,,,,,,,,,,,,,,,,,,,,,,,,,,,,,,,,,,,,,,,,710.826,714.493,7,3.662,0,19,19,19,1,1,20,control,9B,We consider there three problems.
,,95955,128,1,2024-03-05_18h38.25.822,Memory and Syntax,2023.2.3,MacIntel,66.66666667,,,,,,,,,,,,,,,,,,,,,,,,,,,,,,,,,,,,,,,,,,714.493,719.792,1.7,5.295,0,20,20,20,1,1,21,control,8B,She called Victor and yelled at.
,,95955,128,1,2024-03-05_18h38.25.822,Memory and Syntax,2023.2.3,MacIntel,66.66666667,,,,,,,,,,,,,,,,,,,,,,,,,,,,,,,,,,,,,,,,,,719.792,723.109,6.9,3.31,0,21,21,21,1,1,22,WO,4A,The bully pushed every student.
,,95955,128,1,2024-03-05_18h38.25.822,Memory and Syntax,2023.2.3,MacIntel,66.66666667,,,,,,,,,,,,,,,,,,,,,,,,,,,,,,,,,,,,,,,,,,723.11,727.326,6.9,4.211,0,22,22,22,1,1,23,WO,3A,Miguel baked delicious cupcakes.
,,95955,128,1,2024-03-05_18h38.25.822,Memory and Syntax,2023.2.3,MacIntel,66.66666667,,,,,,,,,,,,,,,,,,,,,,,,,,,,,,,,,,,,,,,,,,727.326,729.925,7,2.596,0,23,23,23,1,1,24,WO,1A,Abby answered the question.
,,95955,128,1,2024-03-05_18h38.25.822,Memory and Syntax,2023.2.3,MacIntel,66.66666667,,,,,,,,,,,,,,,,,,,,,,,,,,,,,,,,,,,,,,,,,,729.925,734.093,4,4.163,0,24,24,24,1,1,25,filler,3A,Brittany attempted to touch the porcupine.
,,95955,128,1,2024-03-05_18h38.25.822,Memory and Syntax,2023.2.3,MacIntel,66.66666667,,,,,,,,,,,,,,,,,,,,,,,,,,,,,,,,,,,,,,,,,,734.093,739.092,6,4.995,0,25,25,25,1,1,26,AS,3A,Gracie stayed by the window.
,,95955,128,1,2024-03-05_18h38.25.822,Memory and Syntax,2023.2.3,MacIntel,66.66666667,,,,,,,,,,,,,,,,,,,,,,,,,,,,,,,,,,,,,,,,,,739.092,741.476,6,2.379,0,26,26,26,1,1,27,WOV,11B,Wrote she her boyfriend a poem.
,,95955,128,1,2024-03-05_18h38.25.822,Memory and Syntax,2023.2.3,MacIntel,66.66666667,,,,,,,,,,,,,,,,,,,,,,,,,,,,,,,,,,,,,,,,,,741.476,745.026,3.8,3.545,0,27,27,27,1,1,28,WOV,12B,Watched Lily a movie.
,,95955,128,1,2024-03-05_18h38.25.822,Memory and Syntax,2023.2.3,MacIntel,66.66666667,,,,,,,,,,,,,,,,,,,,,,,,,,,,,,,,,,,,,,,,,,745.026,748.942,4.6,3.908,0,28,28,28,1,1,29,WO,2A,Jackie won the close race.
,,95955,128,1,2024-03-05_18h38.25.822,Memory and Syntax,2023.2.3,MacIntel,66.66666667,,,,,,,,,,,,,,,,,,,,,,,,,,,,,,,,,,,,,,,,,,748.942,754.642,5.3,5.696,0,29,29,29,1,1,30,AS,4A,Tomas drank from the water pitcher.
,,95955,128,1,2024-03-05_18h38.25.822,Memory and Syntax,2023.2.3,MacIntel,66.66666667,,,,,,,,,,,,,,,,,,,,,,,,,,,,,,,,,,,,,,,,,,754.643,761.925,1.1,7.279,0,30,30,30,1,1,31,WOV,10B,Kissed Kareem his boyfriend.
,,95955,128,1,2024-03-05_18h38.25.822,Memory and Syntax,2023.2.3,MacIntel,66.66666667,,,,,,,,,,,,,,,,,,,,,,,,,,,,,,,,,,,,,,,,,,761.925,764.858,7,2.929,0,31,31,31,1,1,32,ASV,10B,The children quieted themselves.
,,95955,128,1,2024-03-05_18h38.25.822,Memory and Syntax,2023.2.3,MacIntel,66.66666667,,,,,,,,,,,,,,,,,,,,,,,,,,,,,,,,,,,,,,,,,,764.858,767.642,7,2.779,0,32,32,32,1,1,33,AS,1A,They fidgeted in their chairs.
,,95955,128,1,2024-03-05_18h38.25.822,Memory and Syntax,2023.2.3,MacIntel,66.66666667,,,,,,,,,,,,,,,,,,,,,,,,,,,,,,,,,,,,,,,,,,767.642,773.142,4.8,5.496,0,33,33,33,1,1,34,filler,4A,It seems to him that Kim solved the problem.
,,95955,128,1,2024-03-05_18h38.25.822,Memory and Syntax,2023.2.3,MacIntel,66.66666667,,,,,,,,,,,,,,,,,,,,,,,,,,,,,,,,,,,,,,,,,,773.142,778.209,3.5,5.061,0,34,34,34,1,1,35,ASV,12B,The swimmers shaved themselves.